[0]Date,[1]Time,[2]Latitude,[3]Longitude,[4]Altitude,[5]Battery Voltage (V),[6]Sats used,[7]Wind Speed (m/s),[8]Wind Dir (deg),[9]Vertical Speed (m/s),[10]Temperature(deg),[11]Pressure (hPa),[12]Humidity (%),[13]Dew point (deg), [14]accX, [15]accY, [16]accZ, [17]gyrX, [18]gyrY, [19]gyrZ, [20]variance_accX, [21]variance_accY, [22]variance_accZ, [23]variance_gyrX,[24]variance_gyrY,[25]variance_gyrZ 
2021-01-27,10:36:43:00,51.022663,7.561802,310.2,2.8,6,0.3,76,-0.2,0.0,979.2,91.9,-1.1,-0.3495534360408783, 9.533711433410645, 0.40222588181495667, -0.051082808524370193, -0.003192675532773137, -0.02766985446214676,0.022130504111278437,0.011085944574148125,0.11454597528481514,0.040565829041911694,0.01671341878262632,0.09047040012899521,
2021-01-27,10:36:43:20,51.022663,7.561802,310.2,2.8,6,0.3,76,-0.2,0.0,979.2,91.9,-1.1, -0.3495534360408783, 9.543288230895996, 0.42616790533065796, -0.047890130430459976, -0.004256900865584612, -0.030862528830766678,0.022130504111278437,0.011085944574148125,0.11454597528481514,0.040565829041911694,0.01671341878262632,0.09047040012899521,
2021-01-27,10:36:43:40,51.022663,7.561802,310.2,2.8,6,0.3,76,-0.2,0.0,979.2,91.9,-1.1, -0.35434186458587646, 9.533711433410645, 0.3974374830722809, -0.051082808524370193, -0.003192675532773137, -0.02766985446214676,0.022130504111278437,0.011085944574148125,0.11454597528481514,0.040565829041911694,0.01671341878262632,0.09047040012899521,
2021-01-27,10:36:43:60,51.022663,7.561802,310.2,2.8,6,0.3,76,-0.2,0.0,979.2,91.9,-1.1, -0.35434186458587646, 9.528923034667969, 0.3926490843296051, -0.051082808524370193, -0.003192675532773137, -0.026605628430843353,0.022130504111278437,0.011085944574148125,0.11454597528481514,0.040565829041911694,0.01671341878262632,0.09047040012899521,
2021-01-27,10:36:43:80,51.022663,7.561802,310.2,2.8,6,0.3,76,-0.2,0.0,979.2,91.9,-1.1, -0.40701428055763245, 9.509769439697266, 0.11971008777618408, 0.051082808524370193, 0.03831210732460022, -0.25434979796409607,0.022130504111278437,0.011085944574148125,0.11454597528481514,0.040565829041911694,0.01671341878262632,0.09047040012899521,
2021-01-27,10:36:45:00,51.022662,7.561799,310.1,2.8,6,0.2,261,-0.3,0.1,979.2,92.0,-1.1,-0.35913026332855225, 9.53849983215332, 0.3926490843296051, -0.051082808524370193, -0.003192675532773137, -0.02766985446214676,0.004883237077105045,0.005245428011385801,0.006771831088000854,0.0,0.0005213618073463443,0.0005213621495361084,
2021-01-27,10:36:45:20,51.022662,7.561799,310.1,2.8,6,0.2,261,-0.3,0.1,979.2,92.0,-1.1, -0.35913026332855225, 9.533711433410645, 0.3974374830722809, -0.051082808524370193, -0.004256900865584612, -0.026605628430843353,0.004883237077105045,0.005245428011385801,0.006771831088000854,0.0,0.0005213618073463443,0.0005213621495361084,
2021-01-27,10:36:45:40,51.022662,7.561799,310.1,2.8,6,0.2,261,-0.3,0.1,979.2,92.0,-1.1, -0.363918662071228, 9.548076629638672, 0.3878606855869293, -0.051082808524370193, -0.004256900865584612, -0.026605628430843353,0.004883237077105045,0.005245428011385801,0.006771831088000854,0.0,0.0005213618073463443,0.0005213621495361084,
2021-01-27,10:36:45:60,51.022662,7.561799,310.1,2.8,6,0.2,261,-0.3,0.1,979.2,92.0,-1.1, -0.3495534360408783, 9.533711433410645, 0.37828385829925537, -0.051082808524370193, -0.003192675532773137, -0.02766985446214676,0.004883237077105045,0.005245428011385801,0.006771831088000854,0.0,0.0005213618073463443,0.0005213621495361084,
2021-01-27,10:36:45:80,51.022662,7.561799,310.1,2.8,6,0.2,261,-0.3,0.1,979.2,92.0,-1.1, -0.35434186458587646, 9.53849983215332, 0.38307225704193115, -0.051082808524370193, -0.003192675532773137, -0.02766985446214676,0.004883237077105045,0.005245428011385801,0.006771831088000854,0.0,0.0005213618073463443,0.0005213621495361084,
2021-01-27,10:36:46:00,51.022661,7.561796,309.9,2.8,6,0.4,43,-0.3,0.1,979.2,92.0,-1.1,-0.3495534360408783, 9.543288230895996, 0.3974374830722809, -0.0521470308303833, -0.003192675532773137, -0.02766985446214676,0.003028458698719025,0.00558418454437604,0.006352528790426049,0.0004256889224052429,0.0005213618073463443,0.0005213621495361084,
2021-01-27,10:36:46:20,51.022661,7.561796,309.9,2.8,6,0.4,43,-0.3,0.1,979.2,92.0,-1.1, -0.3495534360408783, 9.543288230895996, 0.40701428055763245, -0.051082808524370193, -0.003192675532773137, -0.026605628430843353,0.003028458698719025,0.00558418454437604,0.006352528790426049,0.0004256889224052429,0.0005213618073463443,0.0005213621495361084,
2021-01-27,10:36:46:40,51.022661,7.561796,309.9,2.8,6,0.4,43,-0.3,0.1,979.2,92.0,-1.1, -0.35434186458587646, 9.543288230895996, 0.3926490843296051, -0.051082808524370193, -0.004256900865584612, -0.02766985446214676,0.003028458698719025,0.00558418454437604,0.006352528790426049,0.0004256889224052429,0.0005213618073463443,0.0005213621495361084,
2021-01-27,10:36:46:60,51.022661,7.561796,309.9,2.8,6,0.4,43,-0.3,0.1,979.2,92.0,-1.1, -0.3495534360408783, 9.528923034667969, 0.3974374830722809, -0.051082808524370193, -0.004256900865584612, -0.02766985446214676,0.003028458698719025,0.00558418454437604,0.006352528790426049,0.0004256889224052429,0.0005213618073463443,0.0005213621495361084,
2021-01-27,10:36:46:80,51.022661,7.561796,309.9,2.8,6,0.4,43,-0.3,0.1,979.2,92.0,-1.1, -0.3447650372982025, 9.53849983215332, 0.3878606855869293, -0.051082808524370193, -0.003192675532773137, -0.026605628430843353,0.003028458698719025,0.00558418454437604,0.006352528790426049,0.0004256889224052429,0.0005213618073463443,0.0005213621495361084,
2021-01-27,10:36:47:00,51.022662,7.561797,310.0,2.8,6,0.5,265,0.1,0.0,979.2,92.9,-1.0,-0.35913026332855225, 9.543288230895996, 0.4118026793003082, -0.051082808524370193, -0.003192675532773137, -0.02766985446214676,0.004691664391890894,0.005746078491210937,0.007037480162724116,0.0,0.0,0.0005213621495361084,
2021-01-27,10:36:47:20,51.022662,7.561797,310.0,2.8,6,0.5,265,0.1,0.0,979.2,92.9,-1.0, -0.35434186458587646, 9.543288230895996, 0.3974374830722809, -0.051082808524370193, -0.003192675532773137, -0.026605628430843353,0.004691664391890894,0.005746078491210937,0.007037480162724116,0.0,0.0,0.0005213621495361084,
2021-01-27,10:36:47:40,51.022662,7.561797,310.0,2.8,6,0.5,265,0.1,0.0,979.2,92.9,-1.0, -0.35434186458587646, 9.543288230895996, 0.3926490843296051, -0.051082808524370193, -0.003192675532773137, -0.026605628430843353,0.004691664391890894,0.005746078491210937,0.007037480162724116,0.0,0.0,0.0005213621495361084,
2021-01-27,10:36:47:60,51.022662,7.561797,310.0,2.8,6,0.5,265,0.1,0.0,979.2,92.9,-1.0, -0.35434186458587646, 9.528923034667969, 0.3926490843296051, -0.051082808524370193, -0.003192675532773137, -0.02766985446214676,0.004691664391890894,0.005746078491210937,0.007037480162724116,0.0,0.0,0.0005213621495361084,
2021-01-27,10:36:47:80,51.022662,7.561797,310.0,2.8,6,0.5,265,0.1,0.0,979.2,92.9,-1.0, -0.3447650372982025, 9.543288230895996, 0.3974374830722809, -0.051082808524370193, -0.003192675532773137, -0.02766985446214676,0.004691664391890894,0.005746078491210937,0.007037480162724116,0.0,0.0,0.0005213621495361084,
2021-01-27,10:36:48:00,51.022663,7.561799,310.3,2.8,6,0.1,307,-0.1,0.0,979.3,92.8,-1.0,-0.363918662071228, 9.533711433410645, 0.3926490843296051, -0.051082808524370193, -0.003192675532773137, -0.02766985446214676,0.004883237077105045,0.003830718994140625,0.00558418454437604,0.0,0.0004256901331245899,0.0004256904125213623,
2021-01-27,10:36:48:20,51.022663,7.561799,310.3,2.8,6,0.1,307,-0.1,0.0,979.3,92.8,-1.0, -0.35913026332855225, 9.543288230895996, 0.40701428055763245, -0.051082808524370193, -0.004256900865584612, -0.026605628430843353,0.004883237077105045,0.003830718994140625,0.00558418454437604,0.0,0.0004256901331245899,0.0004256904125213623,
2021-01-27,10:36:48:40,51.022663,7.561799,310.3,2.8,6,0.1,307,-0.1,0.0,979.3,92.8,-1.0, -0.35434186458587646, 9.543288230895996, 0.3926490843296051, -0.051082808524370193, -0.003192675532773137, -0.02766985446214676,0.004883237077105045,0.003830718994140625,0.00558418454437604,0.0,0.0004256901331245899,0.0004256904125213623,
2021-01-27,10:36:48:60,51.022663,7.561799,310.3,2.8,6,0.1,307,-0.1,0.0,979.3,92.8,-1.0, -0.3495534360408783, 9.543288230895996, 0.3974374830722809, -0.051082808524370193, -0.003192675532773137, -0.02766985446214676,0.004883237077105045,0.003830718994140625,0.00558418454437604,0.0,0.0004256901331245899,0.0004256904125213623,
2021-01-27,10:36:48:80,51.022663,7.561799,310.3,2.8,6,0.1,307,-0.1,0.0,979.3,92.8,-1.0, -0.35913026332855225, 9.543288230895996, 0.40222588181495667, -0.051082808524370193, -0.003192675532773137, -0.02766985446214676,0.004883237077105045,0.003830718994140625,0.00558418454437604,0.0,0.0004256901331245899,0.0004256904125213623,
2021-01-27,10:36:49:00,51.022664,7.561796,310.9,2.8,10,0.1,134,-0.1,0.0,979.2,93.0,-1.0,-0.35913026332855225, 9.548076629638672, 0.3926490843296051, -0.051082808524370193, -0.004256900865584612, -0.028734078630805016,0.004691653441816077,0.007780227056441718,0.0023458267209080386,0.0005213621495361084,0.0005213618073463443,0.000673075051812123,
2021-01-27,10:36:49:20,51.022664,7.561796,310.9,2.8,10,0.1,134,-0.1,0.0,979.2,93.0,-1.0, -0.3687070608139038, 9.528923034667969, 0.3926490843296051, -0.05001858249306679, -0.003192675532773137, -0.02766985446214676,0.004691653441816077,0.007780227056441718,0.0023458267209080386,0.0005213621495361084,0.0005213618073463443,0.000673075051812123,
2021-01-27,10:36:49:40,51.022664,7.561796,310.9,2.8,10,0.1,134,-0.1,0.0,979.2,93.0,-1.0, -0.35913026332855225, 9.548076629638672, 0.3926490843296051, -0.05001858249306679, -0.004256900865584612, -0.02766985446214676,0.004691653441816077,0.007780227056441718,0.0023458267209080386,0.0005213621495361084,0.0005213618073463443,0.000673075051812123,
2021-01-27,10:36:49:60,51.022664,7.561796,310.9,2.8,10,0.1,134,-0.1,0.0,979.2,93.0,-1.0, -0.35434186458587646, 9.533711433410645, 0.3974374830722809, -0.051082808524370193, -0.003192675532773137, -0.02766985446214676,0.004691653441816077,0.007780227056441718,0.0023458267209080386,0.0005213621495361084,0.0005213618073463443,0.000673075051812123,
2021-01-27,10:36:49:80,51.022664,7.561796,310.9,2.8,10,0.1,134,-0.1,0.0,979.2,93.0,-1.0, -0.35913026332855225, 9.543288230895996, 0.3974374830722809, -0.051082808524370193, -0.003192675532773137, -0.026605628430843353,0.004691653441816077,0.007780227056441718,0.0023458267209080386,0.0005213621495361084,0.0005213618073463443,0.000673075051812123,
2021-01-27,10:36:50:00,51.022665,7.561794,311.2,2.8,10,0.0,252,0.0,0.0,979.1,92.9,-1.0,-0.3495534360408783, 9.548076629638672, 0.3974374830722809, -0.051082808524370193, -0.004256900865584612, -0.02766985446214676,0.004883237077105045,0.003583309505270378,0.0035833095052703783,0.0,0.0005213618073463443,0.0,
2021-01-27,10:36:50:20,51.022665,7.561794,311.2,2.8,10,0.0,252,0.0,0.0,979.1,92.9,-1.0, -0.363918662071228, 9.543288230895996, 0.40222588181495667, -0.051082808524370193, -0.003192675532773137, -0.02766985446214676,0.004883237077105045,0.003583309505270378,0.0035833095052703783,0.0,0.0005213618073463443,0.0,
2021-01-27,10:36:50:40,51.022665,7.561794,311.2,2.8,10,0.0,252,0.0,0.0,979.1,92.9,-1.0, -0.35913026332855225, 9.53849983215332, 0.3974374830722809, -0.051082808524370193, -0.003192675532773137, -0.02766985446214676,0.004883237077105045,0.003583309505270378,0.0035833095052703783,0.0,0.0005213618073463443,0.0,
2021-01-27,10:36:50:60,51.022665,7.561794,311.2,2.8,10,0.0,252,0.0,0.0,979.1,92.9,-1.0, -0.35434186458587646, 9.543288230895996, 0.3926490843296051, -0.051082808524370193, -0.003192675532773137, -0.02766985446214676,0.004883237077105045,0.003583309505270378,0.0035833095052703783,0.0,0.0005213618073463443,0.0,
2021-01-27,10:36:50:80,51.022665,7.561794,311.2,2.8,10,0.0,252,0.0,0.0,979.1,92.9,-1.0, -0.35913026332855225, 9.53849983215332, 0.3926490843296051, -0.051082808524370193, -0.004256900865584612, -0.02766985446214676,0.004883237077105045,0.003583309505270378,0.0035833095052703783,0.0,0.0005213618073463443,0.0,
2021-01-27,10:36:51:00,51.022666,7.561793,311.6,2.8,10,0.1,49,0.0,0.0,979.3,93.2,-1.0,-0.35913026332855225, 9.53849983215332, 0.3878606855869293, -0.051082808524370193, -0.003192675532773137, -0.02766985446214676,0.00558418454437604,0.004282874036799028,0.00801253432438395,0.0,0.0005213618073463443,0.0004256904125213623,
2021-01-27,10:36:51:20,51.022666,7.561793,311.6,2.8,10,0.1,49,0.0,0.0,979.3,93.2,-1.0, -0.35434186458587646, 9.533711433410645, 0.3974374830722809, -0.051082808524370193, -0.004256900865584612, -0.02766985446214676,0.00558418454437604,0.004282874036799028,0.00801253432438395,0.0,0.0005213618073463443,0.0004256904125213623,
2021-01-27,10:36:51:40,51.022666,7.561793,311.6,2.8,10,0.1,49,0.0,0.0,979.3,93.2,-1.0, -0.3687070608139038, 9.543288230895996, 0.3734954595565796, -0.051082808524370193, -0.003192675532773137, -0.026605628430843353,0.00558418454437604,0.004282874036799028,0.00801253432438395,0.0,0.0005213618073463443,0.0004256904125213623,
2021-01-27,10:36:51:60,51.022666,7.561793,311.6,2.8,10,0.1,49,0.0,0.0,979.3,93.2,-1.0, -0.3687070608139038, 9.533711433410645, 0.3926490843296051, -0.051082808524370193, -0.003192675532773137, -0.02766985446214676,0.00558418454437604,0.004282874036799028,0.00801253432438395,0.0,0.0005213618073463443,0.0004256904125213623,
2021-01-27,10:36:51:80,51.022666,7.561793,311.6,2.8,10,0.1,49,0.0,0.0,979.3,93.2,-1.0, -0.363918662071228, 9.543288230895996, 0.3878606855869293, -0.051082808524370193, -0.004256900865584612, -0.02766985446214676,0.00558418454437604,0.004282874036799028,0.00801253432438395,0.0,0.0005213618073463443,0.0004256904125213623,
2021-01-27,10:36:52:00,51.022666,7.561792,311.8,2.8,10,0.1,85,-0.1,0.0,979.3,92.9,-1.0,-0.35913026332855225, 9.543288230895996, 0.3878606855869293, -0.051082808524370193, -0.003192675532773137, -0.02766985446214676,0.004691664391890894,0.004691653441816077,0.005245428011385801,0.0008513808250427246,0.0004256901331245899,0.0005213621495361084,
2021-01-27,10:36:52:20,51.022666,7.561792,311.8,2.8,10,0.1,85,-0.1,0.0,979.3,92.9,-1.0, -0.35913026332855225, 9.53849983215332, 0.40222588181495667, -0.051082808524370193, -0.003192675532773137, -0.026605628430843353,0.004691664391890894,0.004691653441816077,0.005245428011385801,0.0008513808250427246,0.0004256901331245899,0.0005213621495361084,
2021-01-27,10:36:52:40,51.022666,7.561792,311.8,2.8,10,0.1,85,-0.1,0.0,979.3,92.9,-1.0, -0.35913026332855225, 9.528923034667969, 0.3878606855869293, -0.04895435646176338, -0.003192675532773137, -0.026605628430843353,0.004691664391890894,0.004691653441816077,0.005245428011385801,0.0008513808250427246,0.0004256901331245899,0.0005213621495361084,
2021-01-27,10:36:52:60,51.022666,7.561792,311.8,2.8,10,0.1,85,-0.1,0.0,979.3,92.9,-1.0, -0.363918662071228, 9.53849983215332, 0.3926490843296051, -0.051082808524370193, -0.003192675532773137, -0.02766985446214676,0.004691664391890894,0.004691653441816077,0.005245428011385801,0.0008513808250427246,0.0004256901331245899,0.0005213621495361084,
2021-01-27,10:36:52:80,51.022666,7.561792,311.8,2.8,10,0.1,85,-0.1,0.0,979.3,92.9,-1.0, -0.3495534360408783, 9.53849983215332, 0.3926490843296051, -0.051082808524370193, -0.004256900865584612, -0.02766985446214676,0.004691664391890894,0.004691653441816077,0.005245428011385801,0.0008513808250427246,0.0004256901331245899,0.0005213621495361084,
2021-01-27,10:36:53:00,51.022666,7.561791,312.0,2.8,10,0.1,63,0.0,0.0,979.2,92.8,-1.0,-0.3734954595565796, 9.53849983215332, 0.3926490843296051, -0.051082808524370193, -0.003192675532773137, -0.02766985446214676,0.00558418454437604,0.00635252879042605,0.006771818443942366,0.0,0.0005213618073463443,0.0004256904125213623,
2021-01-27,10:36:53:20,51.022666,7.561791,312.0,2.8,10,0.1,63,0.0,0.0,979.2,92.8,-1.0, -0.363918662071228, 9.548076629638672, 0.3878606855869293, -0.051082808524370193, -0.004256900865584612, -0.026605628430843353,0.00558418454437604,0.00635252879042605,0.006771818443942366,0.0,0.0005213618073463443,0.0004256904125213623,
2021-01-27,10:36:53:40,51.022666,7.561791,312.0,2.8,10,0.1,63,0.0,0.0,979.2,92.8,-1.0, -0.35913026332855225, 9.53849983215332, 0.40701428055763245, -0.051082808524370193, -0.003192675532773137, -0.02766985446214676,0.00558418454437604,0.00635252879042605,0.006771818443942366,0.0,0.0005213618073463443,0.0004256904125213623,
2021-01-27,10:36:53:60,51.022666,7.561791,312.0,2.8,10,0.1,63,0.0,0.0,979.2,92.8,-1.0, -0.35913026332855225, 9.533711433410645, 0.40222588181495667, -0.051082808524370193, -0.004256900865584612, -0.02766985446214676,0.00558418454437604,0.00635252879042605,0.006771818443942366,0.0,0.0005213618073463443,0.0004256904125213623,
2021-01-27,10:36:53:80,51.022666,7.561791,312.0,2.8,10,0.1,63,0.0,0.0,979.2,92.8,-1.0, -0.35913026332855225, 9.528923034667969, 0.3974374830722809, -0.051082808524370193, -0.004256900865584612, -0.02766985446214676,0.00558418454437604,0.00635252879042605,0.006771818443942366,0.0,0.0005213618073463443,0.0004256904125213623,
2021-01-27,10:36:54:00,51.022666,7.561790,312.0,2.8,10,0.2,145,0.2,0.0,979.3,92.5,-1.1,-0.35434186458587646, 9.548076629638672, 0.40222588181495667, -0.051082808524370193, -0.004256900865584612, -0.02766985446214676,0.003830729424957808,0.004883227725553393,0.009285063793483846,0.0,0.0005213618073463443,0.0004256904125213623,
2021-01-27,10:36:54:20,51.022666,7.561790,312.0,2.8,10,0.2,145,0.2,0.0,979.3,92.5,-1.1, -0.35913026332855225, 9.533711433410645, 0.37828385829925537, -0.051082808524370193, -0.004256900865584612, -0.02766985446214676,0.003830729424957808,0.004883227725553393,0.009285063793483846,0.0,0.0005213618073463443,0.0004256904125213623,
2021-01-27,10:36:54:40,51.022666,7.561790,312.0,2.8,10,0.2,145,0.2,0.0,979.3,92.5,-1.1, -0.35913026332855225, 9.543288230895996, 0.3974374830722809, -0.051082808524370193, -0.003192675532773137, -0.02766985446214676,0.003830729424957808,0.004883227725553393,0.009285063793483846,0.0,0.0005213618073463443,0.0004256904125213623,
2021-01-27,10:36:54:60,51.022666,7.561790,312.0,2.8,10,0.2,145,0.2,0.0,979.3,92.5,-1.1, -0.35913026332855225, 9.53849983215332, 0.3974374830722809, -0.051082808524370193, -0.003192675532773137, -0.026605628430843353,0.003830729424957808,0.004883227725553393,0.009285063793483846,0.0,0.0005213618073463443,0.0004256904125213623,
2021-01-27,10:36:54:80,51.022666,7.561790,312.0,2.8,10,0.2,145,0.2,0.0,979.3,92.5,-1.1, -0.3495534360408783, 9.53849983215332, 0.38307225704193115, -0.051082808524370193, -0.003192675532773137, -0.02766985446214676,0.003830729424957808,0.004883227725553393,0.009285063793483846,0.0,0.0005213618073463443,0.0004256904125213623,
2021-01-27,10:36:55:00,51.022667,7.561790,312.1,2.8,9,0.1,70,0.1,0.1,979.2,91.7,-1.1,-0.3687070608139038, 9.543288230895996, 0.38307225704193115, -0.051082808524370193, -0.003192675532773137, -0.026605628430843353,0.004883227725553393,0.003830718994140625,0.003583322249286569,0.0,0.0004256901331245899,0.0004256904125213623,
2021-01-27,10:36:55:20,51.022667,7.561790,312.1,2.8,9,0.1,70,0.1,0.1,979.2,91.7,-1.1, -0.363918662071228, 9.53849983215332, 0.38307225704193115, -0.051082808524370193, -0.003192675532773137, -0.02766985446214676,0.004883227725553393,0.003830718994140625,0.003583322249286569,0.0,0.0004256901331245899,0.0004256904125213623,
2021-01-27,10:36:55:40,51.022667,7.561790,312.1,2.8,9,0.1,70,0.1,0.1,979.2,91.7,-1.1, -0.363918662071228, 9.53849983215332, 0.3878606855869293, -0.051082808524370193, -0.003192675532773137, -0.02766985446214676,0.004883227725553393,0.003830718994140625,0.003583322249286569,0.0,0.0004256901331245899,0.0004256904125213623,
2021-01-27,10:36:55:60,51.022667,7.561790,312.1,2.8,9,0.1,70,0.1,0.1,979.2,91.7,-1.1, -0.35434186458587646, 9.53849983215332, 0.3926490843296051, -0.051082808524370193, -0.003192675532773137, -0.02766985446214676,0.004883227725553393,0.003830718994140625,0.003583322249286569,0.0,0.0004256901331245899,0.0004256904125213623,
2021-01-27,10:36:55:80,51.022667,7.561790,312.1,2.8,9,0.1,70,0.1,0.1,979.2,91.7,-1.1, -0.35913026332855225, 9.548076629638672, 0.3878606855869293, -0.051082808524370193, -0.004256900865584612, -0.02766985446214676,0.004883227725553393,0.003830718994140625,0.003583322249286569,0.0,0.0004256901331245899,0.0004256904125213623,
2021-01-27,10:36:56:00,51.022667,7.561790,312.2,2.8,10,0.1,116,0.0,0.1,979.2,92.1,-1.1,-0.363918662071228, 9.543288230895996, 0.3974374830722809, -0.051082808524370193, -0.003192675532773137, -0.02766985446214676,0.004691653441816077,0.004883227725553393,0.004883235908163887,0.0,0.0,0.0004256904125213623,
2021-01-27,10:36:56:20,51.022667,7.561790,312.2,2.8,10,0.1,116,0.0,0.1,979.2,92.1,-1.1, -0.363918662071228, 9.543288230895996, 0.38307225704193115, -0.051082808524370193, -0.003192675532773137, -0.02766985446214676,0.004691653441816077,0.004883227725553393,0.004883235908163887,0.0,0.0,0.0004256904125213623,
2021-01-27,10:36:56:40,51.022667,7.561790,312.2,2.8,10,0.1,116,0.0,0.1,979.2,92.1,-1.1, -0.363918662071228, 9.533711433410645, 0.3878606855869293, -0.051082808524370193, -0.003192675532773137, -0.02766985446214676,0.004691653441816077,0.004883227725553393,0.004883235908163887,0.0,0.0,0.0004256904125213623,
2021-01-27,10:36:56:60,51.022667,7.561790,312.2,2.8,10,0.1,116,0.0,0.1,979.2,92.1,-1.1, -0.35434186458587646, 9.53849983215332, 0.3878606855869293, -0.051082808524370193, -0.003192675532773137, -0.02766985446214676,0.004691653441816077,0.004883227725553393,0.004883235908163887,0.0,0.0,0.0004256904125213623,
2021-01-27,10:36:56:80,51.022667,7.561790,312.2,2.8,10,0.1,116,0.0,0.1,979.2,92.1,-1.1, -0.35434186458587646, 9.548076629638672, 0.3926490843296051, -0.051082808524370193, -0.003192675532773137, -0.026605628430843353,0.004691653441816077,0.004883227725553393,0.004883235908163887,0.0,0.0,0.0004256904125213623,
2021-01-27,10:36:58:00,51.022667,7.561793,312.3,2.8,9,0.0,315,0.0,0.0,979.3,92.5,-1.1,-0.35913026332855225, 9.53849983215332, 0.3878606855869293, -0.051082808524370193, -0.003192675532773137, -0.026605628430843353,0.0035833095052703783,0.005245428011385801,0.004691653441816077,0.0,0.0004256901331245899,0.0004256904125213623,
2021-01-27,10:36:58:20,51.022667,7.561793,312.3,2.8,9,0.0,315,0.0,0.0,979.3,92.5,-1.1, -0.35434186458587646, 9.543288230895996, 0.3974374830722809, -0.051082808524370193, -0.003192675532773137, -0.02766985446214676,0.0035833095052703783,0.005245428011385801,0.004691653441816077,0.0,0.0004256901331245899,0.0004256904125213623,
2021-01-27,10:36:58:40,51.022667,7.561793,312.3,2.8,9,0.0,315,0.0,0.0,979.3,92.5,-1.1, -0.35913026332855225, 9.543288230895996, 0.3974374830722809, -0.051082808524370193, -0.004256900865584612, -0.02766985446214676,0.0035833095052703783,0.005245428011385801,0.004691653441816077,0.0,0.0004256901331245899,0.0004256904125213623,
2021-01-27,10:36:58:60,51.022667,7.561793,312.3,2.8,9,0.0,315,0.0,0.0,979.3,92.5,-1.1, -0.35434186458587646, 9.53849983215332, 0.3974374830722809, -0.051082808524370193, -0.003192675532773137, -0.02766985446214676,0.0035833095052703783,0.005245428011385801,0.004691653441816077,0.0,0.0004256901331245899,0.0004256904125213623,
2021-01-27,10:36:58:80,51.022667,7.561793,312.3,2.8,9,0.0,315,0.0,0.0,979.3,92.5,-1.1, -0.363918662071228, 9.552865028381348, 0.3878606855869293, -0.051082808524370193, -0.003192675532773137, -0.02766985446214676,0.0035833095052703783,0.005245428011385801,0.004691653441816077,0.0,0.0004256901331245899,0.0004256904125213623,
2021-01-27,10:36:59:00,51.022666,7.561793,312.3,2.8,10,0.1,51,0.2,0.0,979.4,92.4,-1.1,-0.363918662071228, 9.53849983215332, 0.4118026793003082, -0.051082808524370193, -0.003192675532773137, -0.02766985446214676,0.004883227725553393,0.00558418454437604,0.007037480162724116,0.0,0.0,0.0,
2021-01-27,10:36:59:20,51.022666,7.561793,312.3,2.8,10,0.1,51,0.2,0.0,979.4,92.4,-1.1, -0.35434186458587646, 9.543288230895996, 0.3974374830722809, -0.051082808524370193, -0.003192675532773137, -0.02766985446214676,0.004883227725553393,0.00558418454437604,0.007037480162724116,0.0,0.0,0.0,
2021-01-27,10:36:59:40,51.022666,7.561793,312.3,2.8,10,0.1,51,0.2,0.0,979.4,92.4,-1.1, -0.3687070608139038, 9.543288230895996, 0.3974374830722809, -0.051082808524370193, -0.003192675532773137, -0.02766985446214676,0.004883227725553393,0.00558418454437604,0.007037480162724116,0.0,0.0,0.0,
2021-01-27,10:36:59:60,51.022666,7.561793,312.3,2.8,10,0.1,51,0.2,0.0,979.4,92.4,-1.1, -0.363918662071228, 9.528923034667969, 0.4118026793003082, -0.051082808524370193, -0.003192675532773137, -0.02766985446214676,0.004883227725553393,0.00558418454437604,0.007037480162724116,0.0,0.0,0.0,
2021-01-27,10:36:59:80,51.022666,7.561793,312.3,2.8,10,0.1,51,0.2,0.0,979.4,92.4,-1.1, -0.35913026332855225, 9.543288230895996, 0.3974374830722809, -0.051082808524370193, -0.003192675532773137, -0.02766985446214676,0.004883227725553393,0.00558418454437604,0.007037480162724116,0.0,0.0,0.0,
2021-01-27,10:37:00:00,51.022666,7.561794,312.2,2.8,10,0.2,214,-0.1,0.0,979.2,92.6,-1.1,-0.35913026332855225, 9.543288230895996, 0.38307225704193115, -0.051082808524370193, -0.004256900865584612, -0.02766985446214676,0.003028449274388396,0.007037480162724116,0.007037489085009812,0.0,0.0005213618073463443,0.0,
2021-01-27,10:37:00:20,51.022666,7.561794,312.2,2.8,10,0.2,214,-0.1,0.0,979.2,92.6,-1.1, -0.35913026332855225, 9.528923034667969, 0.3878606855869293, -0.051082808524370193, -0.004256900865584612, -0.02766985446214676,0.003028449274388396,0.007037480162724116,0.007037489085009812,0.0,0.0005213618073463443,0.0,
2021-01-27,10:37:00:40,51.022666,7.561794,312.2,2.8,10,0.2,214,-0.1,0.0,979.2,92.6,-1.1, -0.35434186458587646, 9.548076629638672, 0.3974374830722809, -0.051082808524370193, -0.003192675532773137, -0.02766985446214676,0.003028449274388396,0.007037480162724116,0.007037489085009812,0.0,0.0005213618073463443,0.0,
2021-01-27,10:37:00:60,51.022666,7.561794,312.2,2.8,10,0.2,214,-0.1,0.0,979.2,92.6,-1.1, -0.363918662071228, 9.543288230895996, 0.40222588181495667, -0.051082808524370193, -0.004256900865584612, -0.02766985446214676,0.003028449274388396,0.007037480162724116,0.007037489085009812,0.0,0.0005213618073463443,0.0,
2021-01-27,10:37:00:80,51.022666,7.561794,312.2,2.8,10,0.2,214,-0.1,0.0,979.2,92.6,-1.1, -0.35913026332855225, 9.533711433410645, 0.3974374830722809, -0.051082808524370193, -0.003192675532773137, -0.02766985446214676,0.003028449274388396,0.007037480162724116,0.007037489085009812,0.0,0.0005213618073463443,0.0,
2021-01-27,10:37:02:00,51.022668,7.561795,312.2,2.8,10,0.0,214,0.0,0.0,979.2,93.1,-1.0,-0.35913026332855225, 9.53849983215332, 0.3926490843296051, -0.051082808524370193, -0.004256900865584612, -0.02766985446214676,0.0019153594970703126,0.003028449274388396,0.007166629365050591,0.0,0.0004256901331245899,0.0005213621495361084,
2021-01-27,10:37:02:20,51.022668,7.561795,312.2,2.8,10,0.0,214,0.0,0.0,979.2,93.1,-1.0, -0.35913026332855225, 9.53849983215332, 0.3974374830722809, -0.051082808524370193, -0.003192675532773137, -0.02766985446214676,0.0019153594970703126,0.003028449274388396,0.007166629365050591,0.0,0.0004256901331245899,0.0005213621495361084,
2021-01-27,10:37:02:40,51.022668,7.561795,312.2,2.8,10,0.0,214,0.0,0.0,979.2,93.1,-1.0, -0.35913026332855225, 9.53849983215332, 0.37828385829925537, -0.051082808524370193, -0.003192675532773137, -0.026605628430843353,0.0019153594970703126,0.003028449274388396,0.007166629365050591,0.0,0.0004256901331245899,0.0005213621495361084,
2021-01-27,10:37:02:60,51.022668,7.561795,312.2,2.8,10,0.0,214,0.0,0.0,979.2,93.1,-1.0, -0.363918662071228, 9.543288230895996, 0.3974374830722809, -0.051082808524370193, -0.003192675532773137, -0.026605628430843353,0.0019153594970703126,0.003028449274388396,0.007166629365050591,0.0,0.0004256901331245899,0.0005213621495361084,
2021-01-27,10:37:02:80,51.022668,7.561795,312.2,2.8,10,0.0,214,0.0,0.0,979.2,93.1,-1.0, -0.35913026332855225, 9.533711433410645, 0.3878606855869293, -0.051082808524370193, -0.003192675532773137, -0.02766985446214676,0.0019153594970703126,0.003028449274388396,0.007166629365050591,0.0,0.0004256901331245899,0.0005213621495361084,
2021-01-27,10:37:03:00,51.022669,7.561795,312.5,2.8,10,0.1,196,0.1,0.0,979.3,93.2,-1.0,-0.3687070608139038, 9.53849983215332, 0.3974374830722809, -0.051082808524370193, -0.004256900865584612, -0.02766985446214676,0.00558418454437604,0.0023458267209080386,0.006056907973103021,0.0,0.0005213618073463443,0.0005213621495361084,
2021-01-27,10:37:03:20,51.022669,7.561795,312.5,2.8,10,0.1,196,0.1,0.0,979.3,93.2,-1.0, -0.35434186458587646, 9.53849983215332, 0.3974374830722809, -0.051082808524370193, -0.004256900865584612, -0.026605628430843353,0.00558418454437604,0.0023458267209080386,0.006056907973103021,0.0,0.0005213618073463443,0.0005213621495361084,
2021-01-27,10:37:03:40,51.022669,7.561795,312.5,2.8,10,0.1,196,0.1,0.0,979.3,93.2,-1.0, -0.35434186458587646, 9.543288230895996, 0.38307225704193115, -0.051082808524370193, -0.003192675532773137, -0.02766985446214676,0.00558418454437604,0.0023458267209080386,0.006056907973103021,0.0,0.0005213618073463443,0.0005213621495361084,
2021-01-27,10:37:03:60,51.022669,7.561795,312.5,2.8,10,0.1,196,0.1,0.0,979.3,93.2,-1.0, -0.363918662071228, 9.543288230895996, 0.3878606855869293, -0.051082808524370193, -0.004256900865584612, -0.026605628430843353,0.00558418454437604,0.0023458267209080386,0.006056907973103021,0.0,0.0005213618073463443,0.0005213621495361084,
2021-01-27,10:37:03:80,51.022669,7.561795,312.5,2.8,10,0.1,196,0.1,0.0,979.3,93.2,-1.0, -0.35913026332855225, 9.53849983215332, 0.3974374830722809, -0.051082808524370193, -0.003192675532773137, -0.02766985446214676,0.00558418454437604,0.0023458267209080386,0.006056907973103021,0.0,0.0005213618073463443,0.0005213621495361084,
2021-01-27,10:37:04:00,51.022670,7.561797,312.6,2.8,10,0.2,221,0.1,0.0,979.3,93.0,-1.0,-0.35913026332855225, 9.533711433410645, 0.3734954595565796, -0.05001858249306679, -0.004256900865584612, -0.02766985446214676,0.0023458267209080386,0.00558418454437604,0.012264297851244117,0.0004256904125213623,0.0005213618073463443,0.0004256904125213623,
2021-01-27,10:37:04:20,51.022670,7.561797,312.6,2.8,10,0.2,221,0.1,0.0,979.3,93.0,-1.0, -0.35913026332855225, 9.548076629638672, 0.38307225704193115, -0.051082808524370193, -0.003192675532773137, -0.02766985446214676,0.0023458267209080386,0.00558418454437604,0.012264297851244117,0.0004256904125213623,0.0005213618073463443,0.0004256904125213623,
2021-01-27,10:37:04:40,51.022670,7.561797,312.6,2.8,10,0.2,221,0.1,0.0,979.3,93.0,-1.0, -0.35913026332855225, 9.548076629638672, 0.40701428055763245, -0.051082808524370193, -0.004256900865584612, -0.026605628430843353,0.0023458267209080386,0.00558418454437604,0.012264297851244117,0.0004256904125213623,0.0005213618073463443,0.0004256904125213623,
2021-01-27,10:37:04:60,51.022670,7.561797,312.6,2.8,10,0.2,221,0.1,0.0,979.3,93.0,-1.0, -0.35434186458587646, 9.53849983215332, 0.40222588181495667, -0.051082808524370193, -0.003192675532773137, -0.02766985446214676,0.0023458267209080386,0.00558418454437604,0.012264297851244117,0.0004256904125213623,0.0005213618073463443,0.0004256904125213623,
2021-01-27,10:37:04:80,51.022670,7.561797,312.6,2.8,10,0.2,221,0.1,0.0,979.3,93.0,-1.0, -0.35434186458587646, 9.543288230895996, 0.3926490843296051, -0.051082808524370193, -0.004256900865584612, -0.02766985446214676,0.0023458267209080386,0.00558418454437604,0.012264297851244117,0.0004256904125213623,0.0005213618073463443,0.0004256904125213623,
2021-01-27,10:37:05:00,51.022670,7.561798,312.6,2.8,10,0.1,291,0.0,-0.1,979.2,92.9,-1.1,-0.363918662071228, 9.548076629638672, 0.3878606855869293, -0.0521470308303833, -0.003192675532773137, -0.02766985446214676,0.0019153594970703126,0.009859916484431406,0.007166628568551129,0.0004256889224052429,0.0,0.0,
2021-01-27,10:37:05:20,51.022670,7.561798,312.6,2.8,10,0.1,291,0.0,-0.1,979.2,92.9,-1.1, -0.35913026332855225, 9.548076629638672, 0.3974374830722809, -0.051082808524370193, -0.003192675532773137, -0.02766985446214676,0.0019153594970703126,0.009859916484431406,0.007166628568551129,0.0004256889224052429,0.0,0.0,
2021-01-27,10:37:05:40,51.022670,7.561798,312.6,2.8,10,0.1,291,0.0,-0.1,979.2,92.9,-1.1, -0.363918662071228, 9.524134635925293, 0.3878606855869293, -0.051082808524370193, -0.003192675532773137, -0.02766985446214676,0.0019153594970703126,0.009859916484431406,0.007166628568551129,0.0004256889224052429,0.0,0.0,
2021-01-27,10:37:05:60,51.022670,7.561798,312.6,2.8,10,0.1,291,0.0,-0.1,979.2,92.9,-1.1, -0.363918662071228, 9.548076629638672, 0.3974374830722809, -0.051082808524370193, -0.003192675532773137, -0.02766985446214676,0.0019153594970703126,0.009859916484431406,0.007166628568551129,0.0004256889224052429,0.0,0.0,
2021-01-27,10:37:05:80,51.022670,7.561798,312.6,2.8,10,0.1,291,0.0,-0.1,979.2,92.9,-1.1, -0.363918662071228, 9.533711433410645, 0.37828385829925537, -0.051082808524370193, -0.003192675532773137, -0.02766985446214676,0.0019153594970703126,0.009859916484431406,0.007166628568551129,0.0004256889224052429,0.0,0.0,
2021-01-27,10:37:06:00,51.022670,7.561798,312.7,2.8,10,0.1,99,0.0,0.0,979.3,93.0,-1.0,-0.3495534360408783, 9.543288230895996, 0.3734954595565796, -0.051082808524370193, -0.003192675532773137, -0.026605628430843353,0.0035833190632842916,0.00558418454437604,0.009285063793483846,0.0,0.0004256901331245899,0.0005213621495361084,
2021-01-27,10:37:06:20,51.022670,7.561798,312.7,2.8,10,0.1,99,0.0,0.0,979.3,93.0,-1.0, -0.35913026332855225, 9.528923034667969, 0.3926490843296051, -0.051082808524370193, -0.003192675532773137, -0.02766985446214676,0.0035833190632842916,0.00558418454437604,0.009285063793483846,0.0,0.0004256901331245899,0.0005213621495361084,
2021-01-27,10:37:06:40,51.022670,7.561798,312.7,2.8,10,0.1,99,0.0,0.0,979.3,93.0,-1.0, -0.35913026332855225, 9.53849983215332, 0.37828385829925537, -0.051082808524370193, -0.003192675532773137, -0.026605628430843353,0.0035833190632842916,0.00558418454437604,0.009285063793483846,0.0,0.0004256901331245899,0.0005213621495361084,
2021-01-27,10:37:06:60,51.022670,7.561798,312.7,2.8,10,0.1,99,0.0,0.0,979.3,93.0,-1.0, -0.35434186458587646, 9.543288230895996, 0.3974374830722809, -0.051082808524370193, -0.004256900865584612, -0.02766985446214676,0.0035833190632842916,0.00558418454437604,0.009285063793483846,0.0,0.0004256901331245899,0.0005213621495361084,
2021-01-27,10:37:06:80,51.022670,7.561798,312.7,2.8,10,0.1,99,0.0,0.0,979.3,93.0,-1.0, -0.35434186458587646, 9.543288230895996, 0.3926490843296051, -0.051082808524370193, -0.003192675532773137, -0.02766985446214676,0.0035833190632842916,0.00558418454437604,0.009285063793483846,0.0,0.0004256901331245899,0.0005213621495361084,
2021-01-27,10:37:07:00,51.022671,7.561797,313.0,2.8,10,0.1,190,0.2,0.0,979.3,93.0,-1.0,-0.35913026332855225, 9.543288230895996, 0.3926490843296051, -0.051082808524370193, -0.003192675532773137, -0.02766985446214676,0.00558418454437604,0.003028449274388396,0.003028449274388396,0.0,0.0005213618073463443,0.0004256904125213623,
2021-01-27,10:37:07:20,51.022671,7.561797,313.0,2.8,10,0.1,190,0.2,0.0,979.3,93.0,-1.0, -0.3687070608139038, 9.548076629638672, 0.3926490843296051, -0.051082808524370193, -0.003192675532773137, -0.026605628430843353,0.00558418454437604,0.003028449274388396,0.003028449274388396,0.0,0.0005213618073463443,0.0004256904125213623,
2021-01-27,10:37:07:40,51.022671,7.561797,313.0,2.8,10,0.1,190,0.2,0.0,979.3,93.0,-1.0, -0.35434186458587646, 9.543288230895996, 0.3878606855869293, -0.051082808524370193, -0.004256900865584612, -0.02766985446214676,0.00558418454437604,0.003028449274388396,0.003028449274388396,0.0,0.0005213618073463443,0.0004256904125213623,
2021-01-27,10:37:07:60,51.022671,7.561797,313.0,2.8,10,0.1,190,0.2,0.0,979.3,93.0,-1.0, -0.35434186458587646, 9.543288230895996, 0.3926490843296051, -0.051082808524370193, -0.004256900865584612, -0.02766985446214676,0.00558418454437604,0.003028449274388396,0.003028449274388396,0.0,0.0005213618073463443,0.0004256904125213623,
2021-01-27,10:37:07:80,51.022671,7.561797,313.0,2.8,10,0.1,190,0.2,0.0,979.3,93.0,-1.0, -0.363918662071228, 9.53849983215332, 0.3974374830722809, -0.051082808524370193, -0.003192675532773137, -0.02766985446214676,0.00558418454437604,0.003028449274388396,0.003028449274388396,0.0,0.0005213618073463443,0.0004256904125213623,
2021-01-27,10:37:08:00,51.022672,7.561797,313.1,2.8,10,0.0,76,0.1,0.0,979.3,93.1,-1.0,-0.35434186458587646, 9.53849983215332, 0.38307225704193115, -0.05001858249306679, -0.003192675532773137, -0.02766985446214676,0.004883227725553393,0.006771818443942366,0.0057460923989631025,0.0004256904125213623,0.0,0.0005213621495361084,
2021-01-27,10:37:08:20,51.022672,7.561797,313.1,2.8,10,0.0,76,0.1,0.0,979.3,93.1,-1.0, -0.363918662071228, 9.548076629638672, 0.3926490843296051, -0.051082808524370193, -0.003192675532773137, -0.02766985446214676,0.004883227725553393,0.006771818443942366,0.0057460923989631025,0.0004256904125213623,0.0,0.0005213621495361084,
2021-01-27,10:37:08:40,51.022672,7.561797,313.1,2.8,10,0.0,76,0.1,0.0,979.3,93.1,-1.0, -0.35913026332855225, 9.543288230895996, 0.38307225704193115, -0.051082808524370193, -0.003192675532773137, -0.02766985446214676,0.004883227725553393,0.006771818443942366,0.0057460923989631025,0.0004256904125213623,0.0,0.0005213621495361084,
2021-01-27,10:37:08:60,51.022672,7.561797,313.1,2.8,10,0.0,76,0.1,0.0,979.3,93.1,-1.0, -0.3687070608139038, 9.552865028381348, 0.3926490843296051, -0.051082808524370193, -0.003192675532773137, -0.026605628430843353,0.004883227725553393,0.006771818443942366,0.0057460923989631025,0.0004256904125213623,0.0,0.0005213621495361084,
2021-01-27,10:37:08:80,51.022672,7.561797,313.1,2.8,10,0.0,76,0.1,0.0,979.3,93.1,-1.0, -0.35913026332855225, 9.533711433410645, 0.37828385829925537, -0.051082808524370193, -0.003192675532773137, -0.026605628430843353,0.004883227725553393,0.006771818443942366,0.0057460923989631025,0.0004256904125213623,0.0,0.0005213621495361084,
2021-01-27,10:37:10:00,51.022671,7.561796,313.1,2.8,10,0.1,245,-0.1,0.0,979.1,93.2,-1.0,-0.3687070608139038, 9.543288230895996, 0.3878606855869293, -0.051082808524370193, -0.003192675532773137, -0.02766985446214676,0.003028449274388396,0.007780227056441718,0.009383318442046202,0.0,0.0005213618073463443,0.0004256904125213623,
2021-01-27,10:37:10:20,51.022671,7.561796,313.1,2.8,10,0.1,245,-0.1,0.0,979.1,93.2,-1.0, -0.363918662071228, 9.548076629638672, 0.3734954595565796, -0.051082808524370193, -0.004256900865584612, -0.02766985446214676,0.003028449274388396,0.007780227056441718,0.009383318442046202,0.0,0.0005213618073463443,0.0004256904125213623,
2021-01-27,10:37:10:40,51.022671,7.561796,313.1,2.8,10,0.1,245,-0.1,0.0,979.1,93.2,-1.0, -0.35913026332855225, 9.543288230895996, 0.40222588181495667, -0.051082808524370193, -0.004256900865584612, -0.026605628430843353,0.003028449274388396,0.007780227056441718,0.009383318442046202,0.0,0.0005213618073463443,0.0004256904125213623,
2021-01-27,10:37:10:60,51.022671,7.561796,313.1,2.8,10,0.1,245,-0.1,0.0,979.1,93.2,-1.0, -0.363918662071228, 9.533711433410645, 0.38307225704193115, -0.051082808524370193, -0.004256900865584612, -0.02766985446214676,0.003028449274388396,0.007780227056441718,0.009383318442046202,0.0,0.0005213618073463443,0.0004256904125213623,
2021-01-27,10:37:10:80,51.022671,7.561796,313.1,2.8,10,0.1,245,-0.1,0.0,979.1,93.2,-1.0, -0.363918662071228, 9.557653427124023, 0.38307225704193115, -0.051082808524370193, -0.003192675532773137, -0.02766985446214676,0.003028449274388396,0.007780227056441718,0.009383318442046202,0.0,0.0005213618073463443,0.0004256904125213623,
2021-01-27,10:37:11:00,51.022672,7.561796,313.0,2.8,10,0.1,74,-0.1,0.0,979.2,92.6,-1.1,-0.363918662071228, 9.528923034667969, 0.38307225704193115, -0.051082808524370193, -0.004256900865584612, -0.02766985446214676,0.0019153594970703126,0.006056898548776792,0.006495310618594741,0.0,0.0005213618073463443,0.0004256904125213623,
2021-01-27,10:37:11:20,51.022672,7.561796,313.0,2.8,10,0.1,74,-0.1,0.0,979.2,92.6,-1.1, -0.363918662071228, 9.543288230895996, 0.3926490843296051, -0.051082808524370193, -0.003192675532773137, -0.02766985446214676,0.0019153594970703126,0.006056898548776792,0.006495310618594741,0.0,0.0005213618073463443,0.0004256904125213623,
2021-01-27,10:37:11:40,51.022672,7.561796,313.0,2.8,10,0.1,74,-0.1,0.0,979.2,92.6,-1.1, -0.35913026332855225, 9.533711433410645, 0.3974374830722809, -0.051082808524370193, -0.004256900865584612, -0.02766985446214676,0.0019153594970703126,0.006056898548776792,0.006495310618594741,0.0,0.0005213618073463443,0.0004256904125213623,
2021-01-27,10:37:11:60,51.022672,7.561796,313.0,2.8,10,0.1,74,-0.1,0.0,979.2,92.6,-1.1, -0.363918662071228, 9.543288230895996, 0.40222588181495667, -0.051082808524370193, -0.003192675532773137, -0.026605628430843353,0.0019153594970703126,0.006056898548776792,0.006495310618594741,0.0,0.0005213618073463443,0.0004256904125213623,
2021-01-27,10:37:11:80,51.022672,7.561796,313.0,2.8,10,0.1,74,-0.1,0.0,979.2,92.6,-1.1, -0.363918662071228, 9.543288230895996, 0.3974374830722809, -0.051082808524370193, -0.003192675532773137, -0.02766985446214676,0.0019153594970703126,0.006056898548776792,0.006495310618594741,0.0,0.0005213618073463443,0.0004256904125213623,
2021-01-27,10:37:12:00,51.022671,7.561794,312.9,2.8,10,0.2,342,-0.2,0.0,979.2,93.5,-0.9,-0.35434186458587646, 9.533711433410645, 0.3974374830722809, -0.051082808524370193, -0.003192675532773137, -0.026605628430843353,0.003830718994140625,0.003830718994140625,0.008881168840715775,0.0004256904125213623,0.0004256901331245899,0.0005213621495361084,
2021-01-27,10:37:12:20,51.022671,7.561794,312.9,2.8,10,0.2,342,-0.2,0.0,979.2,93.5,-0.9, -0.363918662071228, 9.533711433410645, 0.40222588181495667, -0.05001858249306679, -0.003192675532773137, -0.026605628430843353,0.003830718994140625,0.003830718994140625,0.008881168840715775,0.0004256904125213623,0.0004256901331245899,0.0005213621495361084,
2021-01-27,10:37:12:40,51.022671,7.561794,312.9,2.8,10,0.2,342,-0.2,0.0,979.2,93.5,-0.9, -0.363918662071228, 9.533711433410645, 0.3878606855869293, -0.051082808524370193, -0.004256900865584612, -0.02766985446214676,0.003830718994140625,0.003830718994140625,0.008881168840715775,0.0004256904125213623,0.0004256901331245899,0.0005213621495361084,
2021-01-27,10:37:12:60,51.022671,7.561794,312.9,2.8,10,0.2,342,-0.2,0.0,979.2,93.5,-0.9, -0.363918662071228, 9.543288230895996, 0.38307225704193115, -0.051082808524370193, -0.003192675532773137, -0.02766985446214676,0.003830718994140625,0.003830718994140625,0.008881168840715775,0.0004256904125213623,0.0004256901331245899,0.0005213621495361084,
2021-01-27,10:37:12:80,51.022671,7.561794,312.9,2.8,10,0.2,342,-0.2,0.0,979.2,93.5,-0.9, -0.35913026332855225, 9.53849983215332, 0.37828385829925537, -0.051082808524370193, -0.003192675532773137, -0.02766985446214676,0.003830718994140625,0.003830718994140625,0.008881168840715775,0.0004256904125213623,0.0004256901331245899,0.0005213621495361084,
2021-01-27,10:37:13:00,51.022671,7.561794,312.9,2.8,10,0.1,313,-0.3,0.0,979.3,93.3,-0.9,-0.35913026332855225, 9.53849983215332, 0.3878606855869293, -0.051082808524370193, -0.003192675532773137, -0.02766985446214676,0.00558418454437604,0.003028449274388396,0.00801253432438395,0.0,0.0004256901331245899,0.0004256904125213623,
2021-01-27,10:37:13:20,51.022671,7.561794,312.9,2.8,10,0.1,313,-0.3,0.0,979.3,93.3,-0.9, -0.35913026332855225, 9.53849983215332, 0.3926490843296051, -0.051082808524370193, -0.004256900865584612, -0.02766985446214676,0.00558418454437604,0.003028449274388396,0.00801253432438395,0.0,0.0004256901331245899,0.0004256904125213623,
2021-01-27,10:37:13:40,51.022671,7.561794,312.9,2.8,10,0.1,313,-0.3,0.0,979.3,93.3,-0.9, -0.35913026332855225, 9.53849983215332, 0.3974374830722809, -0.051082808524370193, -0.003192675532773137, -0.02766985446214676,0.00558418454437604,0.003028449274388396,0.00801253432438395,0.0,0.0004256901331245899,0.0004256904125213623,
2021-01-27,10:37:13:60,51.022671,7.561794,312.9,2.8,10,0.1,313,-0.3,0.0,979.3,93.3,-0.9, -0.363918662071228, 9.543288230895996, 0.3734954595565796, -0.051082808524370193, -0.003192675532773137, -0.026605628430843353,0.00558418454437604,0.003028449274388396,0.00801253432438395,0.0,0.0004256901331245899,0.0004256904125213623,
2021-01-27,10:37:13:80,51.022671,7.561794,312.9,2.8,10,0.1,313,-0.3,0.0,979.3,93.3,-0.9, -0.3734954595565796, 9.533711433410645, 0.3878606855869293, -0.051082808524370193, -0.003192675532773137, -0.02766985446214676,0.00558418454437604,0.003028449274388396,0.00801253432438395,0.0,0.0004256901331245899,0.0004256904125213623,
2021-01-27,10:37:14:00,51.022672,7.561795,312.9,2.8,10,0.1,354,-0.3,0.0,979.1,93.4,-0.9,-0.3687070608139038, 9.543288230895996, 0.3974374830722809, -0.051082808524370193, -0.003192675532773137, -0.02766985446214676,0.008881164341582922,0.004691653441816077,0.010664281590372597,0.0004256904125213623,0.0004256901331245899,0.0004256904125213623,
2021-01-27,10:37:14:20,51.022672,7.561795,312.9,2.8,10,0.1,354,-0.3,0.0,979.1,93.4,-0.9, -0.3495534360408783, 9.53849983215332, 0.3926490843296051, -0.051082808524370193, -0.003192675532773137, -0.02766985446214676,0.008881164341582922,0.004691653441816077,0.010664281590372597,0.0004256904125213623,0.0004256901331245899,0.0004256904125213623,
2021-01-27,10:37:14:40,51.022672,7.561795,312.9,2.8,10,0.1,354,-0.3,0.0,979.1,93.4,-0.9, -0.35913026332855225, 9.543288230895996, 0.3687070608139038, -0.05001858249306679, -0.004256900865584612, -0.02766985446214676,0.008881164341582922,0.004691653441816077,0.010664281590372597,0.0004256904125213623,0.0004256901331245899,0.0004256904125213623,
2021-01-27,10:37:14:60,51.022672,7.561795,312.9,2.8,10,0.1,354,-0.3,0.0,979.1,93.4,-0.9, -0.3734954595565796, 9.552865028381348, 0.3974374830722809, -0.051082808524370193, -0.003192675532773137, -0.026605628430843353,0.008881164341582922,0.004691653441816077,0.010664281590372597,0.0004256904125213623,0.0004256901331245899,0.0004256904125213623,
2021-01-27,10:37:14:80,51.022672,7.561795,312.9,2.8,10,0.1,354,-0.3,0.0,979.1,93.4,-0.9, -0.35434186458587646, 9.543288230895996, 0.3878606855869293, -0.051082808524370193, -0.003192675532773137, -0.02766985446214676,0.008881164341582922,0.004691653441816077,0.010664281590372597,0.0004256904125213623,0.0004256901331245899,0.0004256904125213623,
2021-01-27,10:37:15:00,51.022672,7.561794,312.8,2.8,10,0.1,62,-0.2,0.0,979.4,93.2,-0.9,-0.3687070608139038, 9.543288230895996, 0.3926490843296051, -0.051082808524370193, -0.003192675532773137, -0.02766985446214676,0.003028449274388396,0.0023458267209080386,0.0064953071033093295,0.0,0.0004256901331245899,0.0004256904125213623,
2021-01-27,10:37:15:20,51.022672,7.561794,312.8,2.8,10,0.1,62,-0.2,0.0,979.4,93.2,-0.9, -0.363918662071228, 9.543288230895996, 0.3878606855869293, -0.051082808524370193, -0.003192675532773137, -0.026605628430843353,0.003028449274388396,0.0023458267209080386,0.0064953071033093295,0.0,0.0004256901331245899,0.0004256904125213623,
2021-01-27,10:37:15:40,51.022672,7.561794,312.8,2.8,10,0.1,62,-0.2,0.0,979.4,93.2,-0.9, -0.3734954595565796, 9.53849983215332, 0.40222588181495667, -0.051082808524370193, -0.003192675532773137, -0.02766985446214676,0.003028449274388396,0.0023458267209080386,0.0064953071033093295,0.0,0.0004256901331245899,0.0004256904125213623,
2021-01-27,10:37:15:60,51.022672,7.561794,312.8,2.8,10,0.1,62,-0.2,0.0,979.4,93.2,-0.9, -0.3687070608139038, 9.53849983215332, 0.38307225704193115, -0.051082808524370193, -0.004256900865584612, -0.02766985446214676,0.003028449274388396,0.0023458267209080386,0.0064953071033093295,0.0,0.0004256901331245899,0.0004256904125213623,
2021-01-27,10:37:15:80,51.022672,7.561794,312.8,2.8,10,0.1,62,-0.2,0.0,979.4,93.2,-0.9, -0.3687070608139038, 9.53849983215332, 0.3878606855869293, -0.051082808524370193, -0.003192675532773137, -0.02766985446214676,0.003028449274388396,0.0023458267209080386,0.0064953071033093295,0.0,0.0004256901331245899,0.0004256904125213623,
2021-01-27,10:37:16:00,51.022672,7.561794,312.9,2.8,10,0.0,340,0.0,0.0,979.2,93.1,-1.0,-0.363918662071228, 9.543288230895996, 0.38307225704193115, -0.051082808524370193, -0.004256900865584612, -0.02766985446214676,0.0019153594970703126,0.00635252879042605,0.007661451399328498,0.0,0.0005213618073463443,0.0004256904125213623,
2021-01-27,10:37:16:20,51.022672,7.561794,312.9,2.8,10,0.0,340,0.0,0.0,979.2,93.1,-1.0, -0.3687070608139038, 9.533711433410645, 0.40222588181495667, -0.051082808524370193, -0.003192675532773137, -0.02766985446214676,0.0019153594970703126,0.00635252879042605,0.007661451399328498,0.0,0.0005213618073463443,0.0004256904125213623,
2021-01-27,10:37:16:40,51.022672,7.561794,312.9,2.8,10,0.0,340,0.0,0.0,979.2,93.1,-1.0, -0.363918662071228, 9.53849983215332, 0.38307225704193115, -0.051082808524370193, -0.003192675532773137, -0.02766985446214676,0.0019153594970703126,0.00635252879042605,0.007661451399328498,0.0,0.0005213618073463443,0.0004256904125213623,
2021-01-27,10:37:16:60,51.022672,7.561794,312.9,2.8,10,0.0,340,0.0,0.0,979.2,93.1,-1.0, -0.363918662071228, 9.552865028381348, 0.3974374830722809, -0.051082808524370193, -0.004256900865584612, -0.02766985446214676,0.0019153594970703126,0.00635252879042605,0.007661451399328498,0.0,0.0005213618073463443,0.0004256904125213623,
2021-01-27,10:37:16:80,51.022672,7.561794,312.9,2.8,10,0.0,340,0.0,0.0,979.2,93.1,-1.0, -0.363918662071228, 9.543288230895996, 0.3926490843296051, -0.051082808524370193, -0.003192675532773137, -0.026605628430843353,0.0019153594970703126,0.00635252879042605,0.007661451399328498,0.0,0.0005213618073463443,0.0004256904125213623,
2021-01-27,10:37:17:00,51.022672,7.561794,312.7,2.8,10,0.1,200,-0.1,0.0,979.3,93.0,-1.0,-0.363918662071228, 9.533711433410645, 0.40222588181495667, -0.051082808524370193, -0.004256900865584612, -0.026605628430843353,0.0035833095052703783,0.0023458267209080386,0.008881170126180742,0.0,0.0005213618073463443,0.0005213621495361084,
2021-01-27,10:37:17:20,51.022672,7.561794,312.7,2.8,10,0.1,200,-0.1,0.0,979.3,93.0,-1.0, -0.3687070608139038, 9.53849983215332, 0.3974374830722809, -0.051082808524370193, -0.004256900865584612, -0.02766985446214676,0.0035833095052703783,0.0023458267209080386,0.008881170126180742,0.0,0.0005213618073463443,0.0005213621495361084,
2021-01-27,10:37:17:40,51.022672,7.561794,312.7,2.8,10,0.1,200,-0.1,0.0,979.3,93.0,-1.0, -0.3734954595565796, 9.533711433410645, 0.3926490843296051, -0.051082808524370193, -0.004256900865584612, -0.026605628430843353,0.0035833095052703783,0.0023458267209080386,0.008881170126180742,0.0,0.0005213618073463443,0.0005213621495361084,
2021-01-27,10:37:17:60,51.022672,7.561794,312.7,2.8,10,0.1,200,-0.1,0.0,979.3,93.0,-1.0, -0.3687070608139038, 9.53849983215332, 0.37828385829925537, -0.051082808524370193, -0.003192675532773137, -0.026605628430843353,0.0035833095052703783,0.0023458267209080386,0.008881170126180742,0.0,0.0005213618073463443,0.0005213621495361084,
2021-01-27,10:37:17:80,51.022672,7.561794,312.7,2.8,10,0.1,200,-0.1,0.0,979.3,93.0,-1.0, -0.363918662071228, 9.533711433410645, 0.38307225704193115, -0.051082808524370193, -0.003192675532773137, -0.02766985446214676,0.0035833095052703783,0.0023458267209080386,0.008881170126180742,0.0,0.0005213618073463443,0.0005213621495361084,
2021-01-27,10:37:19:00,51.022672,7.561794,312.4,2.8,10,0.1,350,-0.1,0.0,979.2,92.3,-1.1,-0.3687070608139038, 9.524134635925293, 0.37828385829925537, -0.051082808524370193, -0.004256900865584612, -0.026605628430843353,0.0035833095052703783,0.007166619010540756,0.008238284477692183,0.0,0.0005213618073463443,0.0005213621495361084,
2021-01-27,10:37:19:20,51.022672,7.561794,312.4,2.8,10,0.1,350,-0.1,0.0,979.2,92.3,-1.1, -0.363918662071228, 9.543288230895996, 0.38307225704193115, -0.051082808524370193, -0.003192675532773137, -0.026605628430843353,0.0035833095052703783,0.007166619010540756,0.008238284477692183,0.0,0.0005213618073463443,0.0005213621495361084,
2021-01-27,10:37:19:40,51.022672,7.561794,312.4,2.8,10,0.1,350,-0.1,0.0,979.2,92.3,-1.1, -0.35913026332855225, 9.533711433410645, 0.40222588181495667, -0.051082808524370193, -0.003192675532773137, -0.02766985446214676,0.0035833095052703783,0.007166619010540756,0.008238284477692183,0.0,0.0005213618073463443,0.0005213621495361084,
2021-01-27,10:37:19:60,51.022672,7.561794,312.4,2.8,10,0.1,350,-0.1,0.0,979.2,92.3,-1.1, -0.3687070608139038, 9.543288230895996, 0.3926490843296051, -0.051082808524370193, -0.004256900865584612, -0.02766985446214676,0.0035833095052703783,0.007166619010540756,0.008238284477692183,0.0,0.0005213618073463443,0.0005213621495361084,
2021-01-27,10:37:19:80,51.022672,7.561794,312.4,2.8,10,0.1,350,-0.1,0.0,979.2,92.3,-1.1, -0.363918662071228, 9.533711433410645, 0.3878606855869293, -0.051082808524370193, -0.004256900865584612, -0.026605628430843353,0.0035833095052703783,0.007166619010540756,0.008238284477692183,0.0,0.0005213618073463443,0.0005213621495361084,
2021-01-27,10:37:20:00,51.022672,7.561794,312.4,2.8,10,0.1,200,0.0,0.0,979.1,92.7,-1.0,-0.363918662071228, 9.53849983215332, 0.3974374830722809, -0.051082808524370193, -0.004256900865584612, -0.02766985446214676,0.006771818443942366,0.007037480162724116,0.009285063793483846,0.0,0.0005213618073463443,0.0005213621495361084,
2021-01-27,10:37:20:20,51.022672,7.561794,312.4,2.8,10,0.1,200,0.0,0.0,979.1,92.7,-1.0, -0.35913026332855225, 9.548076629638672, 0.37828385829925537, -0.051082808524370193, -0.004256900865584612, -0.026605628430843353,0.006771818443942366,0.007037480162724116,0.009285063793483846,0.0,0.0005213618073463443,0.0005213621495361084,
2021-01-27,10:37:20:40,51.022672,7.561794,312.4,2.8,10,0.1,200,0.0,0.0,979.1,92.7,-1.0, -0.3687070608139038, 9.53849983215332, 0.3926490843296051, -0.051082808524370193, -0.003192675532773137, -0.02766985446214676,0.006771818443942366,0.007037480162724116,0.009285063793483846,0.0,0.0005213618073463443,0.0005213621495361084,
2021-01-27,10:37:20:60,51.022672,7.561794,312.4,2.8,10,0.1,200,0.0,0.0,979.1,92.7,-1.0, -0.35434186458587646, 9.533711433410645, 0.3734954595565796, -0.051082808524370193, -0.003192675532773137, -0.026605628430843353,0.006771818443942366,0.007037480162724116,0.009285063793483846,0.0,0.0005213618073463443,0.0005213621495361084,
2021-01-27,10:37:20:80,51.022672,7.561794,312.4,2.8,10,0.1,200,0.0,0.0,979.1,92.7,-1.0, -0.3734954595565796, 9.552865028381348, 0.37828385829925537, -0.051082808524370193, -0.004256900865584612, -0.02766985446214676,0.006771818443942366,0.007037480162724116,0.009285063793483846,0.0,0.0005213618073463443,0.0005213621495361084,
2021-01-27,10:37:21:00,51.022673,7.561795,312.4,2.8,10,0.2,177,0.2,0.0,979.3,92.6,-1.1,-0.35913026332855225, 9.543288230895996, 0.3926490843296051, -0.051082808524370193, -0.003192675532773137, -0.02766985446214676,0.00558418454437604,0.008238272698559004,0.0038307324051900468,0.0004256889224052429,0.0005213618073463443,0.0004256904125213623,
2021-01-27,10:37:21:20,51.022673,7.561795,312.4,2.8,10,0.2,177,0.2,0.0,979.3,92.6,-1.1, -0.363918662071228, 9.543288230895996, 0.38307225704193115, -0.051082808524370193, -0.003192675532773137, -0.02766985446214676,0.00558418454437604,0.008238272698559004,0.0038307324051900468,0.0004256889224052429,0.0005213618073463443,0.0004256904125213623,
2021-01-27,10:37:21:40,51.022673,7.561795,312.4,2.8,10,0.2,177,0.2,0.0,979.3,92.6,-1.1, -0.3734954595565796, 9.548076629638672, 0.38307225704193115, -0.051082808524370193, -0.003192675532773137, -0.02766985446214676,0.00558418454437604,0.008238272698559004,0.0038307324051900468,0.0004256889224052429,0.0005213618073463443,0.0004256904125213623,
2021-01-27,10:37:21:60,51.022673,7.561795,312.4,2.8,10,0.2,177,0.2,0.0,979.3,92.6,-1.1, -0.3734954595565796, 9.53849983215332, 0.38307225704193115, -0.0521470308303833, -0.004256900865584612, -0.026605628430843353,0.00558418454437604,0.008238272698559004,0.0038307324051900468,0.0004256889224052429,0.0005213618073463443,0.0004256904125213623,
2021-01-27,10:37:21:80,51.022673,7.561795,312.4,2.8,10,0.2,177,0.2,0.0,979.3,92.6,-1.1, -0.3687070608139038, 9.5624418258667, 0.3878606855869293, -0.051082808524370193, -0.004256900865584612, -0.02766985446214676,0.00558418454437604,0.008238272698559004,0.0038307324051900468,0.0004256889224052429,0.0005213618073463443,0.0004256904125213623,
2021-01-27,10:37:22:00,51.022674,7.561794,312.7,2.8,10,0.1,359,0.0,0.0,979.2,92.9,-1.0,-0.35913026332855225, 9.543288230895996, 0.3878606855869293, -0.051082808524370193, -0.003192675532773137, -0.02766985446214676,0.003830718994140625,0.004691653441816077,0.01108595641698266,0.0,0.0005213618073463443,0.0005213621495361084,
2021-01-27,10:37:22:20,51.022674,7.561794,312.7,2.8,10,0.1,359,0.0,0.0,979.2,92.9,-1.0, -0.35434186458587646, 9.543288230895996, 0.38307225704193115, -0.051082808524370193, -0.003192675532773137, -0.02766985446214676,0.003830718994140625,0.004691653441816077,0.01108595641698266,0.0,0.0005213618073463443,0.0005213621495361084,
2021-01-27,10:37:22:40,51.022674,7.561794,312.7,2.8,10,0.1,359,0.0,0.0,979.2,92.9,-1.0, -0.363918662071228, 9.543288230895996, 0.3926490843296051, -0.051082808524370193, -0.004256900865584612, -0.026605628430843353,0.003830718994140625,0.004691653441816077,0.01108595641698266,0.0,0.0005213618073463443,0.0005213621495361084,
2021-01-27,10:37:22:60,51.022674,7.561794,312.7,2.8,10,0.1,359,0.0,0.0,979.2,92.9,-1.0, -0.363918662071228, 9.548076629638672, 0.40222588181495667, -0.051082808524370193, -0.003192675532773137, -0.026605628430843353,0.003830718994140625,0.004691653441816077,0.01108595641698266,0.0,0.0005213618073463443,0.0005213621495361084,
2021-01-27,10:37:22:80,51.022674,7.561794,312.7,2.8,10,0.1,359,0.0,0.0,979.2,92.9,-1.0, -0.363918662071228, 9.533711433410645, 0.3687070608139038, -0.051082808524370193, -0.004256900865584612, -0.02766985446214676,0.003830718994140625,0.004691653441816077,0.01108595641698266,0.0,0.0005213618073463443,0.0005213621495361084,
2021-01-27,10:37:23:00,51.022673,7.561795,312.6,2.8,10,0.1,11,0.0,0.0,979.3,92.7,-1.0,-0.3495534360408783, 9.53849983215332, 0.3734954595565796, -0.0521470308303833, -0.003192675532773137, -0.026605628430843353,0.007166629365050591,0.0023458267209080386,0.015619297173446497,0.0004256889224052429,0.0004256901331245899,0.0005213621495361084,
2021-01-27,10:37:23:20,51.022673,7.561795,312.6,2.8,10,0.1,11,0.0,0.0,979.3,92.7,-1.0, -0.3687070608139038, 9.53849983215332, 0.38307225704193115, -0.051082808524370193, -0.004256900865584612, -0.02766985446214676,0.007166629365050591,0.0023458267209080386,0.015619297173446497,0.0004256889224052429,0.0004256901331245899,0.0005213621495361084,
2021-01-27,10:37:23:40,51.022673,7.561795,312.6,2.8,10,0.1,11,0.0,0.0,979.3,92.7,-1.0, -0.3687070608139038, 9.543288230895996, 0.3974374830722809, -0.051082808524370193, -0.004256900865584612, -0.026605628430843353,0.007166629365050591,0.0023458267209080386,0.015619297173446497,0.0004256889224052429,0.0004256901331245899,0.0005213621495361084,
2021-01-27,10:37:23:60,51.022673,7.561795,312.6,2.8,10,0.1,11,0.0,0.0,979.3,92.7,-1.0, -0.363918662071228, 9.543288230895996, 0.363918662071228, -0.051082808524370193, -0.004256900865584612, -0.02766985446214676,0.007166629365050591,0.0023458267209080386,0.015619297173446497,0.0004256889224052429,0.0004256901331245899,0.0005213621495361084,
2021-01-27,10:37:23:80,51.022673,7.561795,312.6,2.8,10,0.1,11,0.0,0.0,979.3,92.7,-1.0, -0.35913026332855225, 9.53849983215332, 0.40701428055763245, -0.051082808524370193, -0.004256900865584612, -0.026605628430843353,0.007166629365050591,0.0023458267209080386,0.015619297173446497,0.0004256889224052429,0.0004256901331245899,0.0005213621495361084,
2021-01-27,10:37:24:00,51.022673,7.561794,312.6,2.8,10,0.1,54,0.1,0.1,979.2,92.7,-1.0,-0.3687070608139038, 9.548076629638672, 0.3926490843296051, -0.051082808524370193, -0.003192675532773137, -0.02766985446214676,0.0019153594970703126,0.004883227725553393,0.004691664391890894,0.0,0.0004256901331245899,0.0004256904125213623,
2021-01-27,10:37:24:20,51.022673,7.561794,312.6,2.8,10,0.1,54,0.1,0.1,979.2,92.7,-1.0, -0.363918662071228, 9.543288230895996, 0.3878606855869293, -0.051082808524370193, -0.004256900865584612, -0.02766985446214676,0.0019153594970703126,0.004883227725553393,0.004691664391890894,0.0,0.0004256901331245899,0.0004256904125213623,
2021-01-27,10:37:24:40,51.022673,7.561794,312.6,2.8,10,0.1,54,0.1,0.1,979.2,92.7,-1.0, -0.363918662071228, 9.548076629638672, 0.3878606855869293, -0.051082808524370193, -0.003192675532773137, -0.02766985446214676,0.0019153594970703126,0.004883227725553393,0.004691664391890894,0.0,0.0004256901331245899,0.0004256904125213623,
2021-01-27,10:37:24:60,51.022673,7.561794,312.6,2.8,10,0.1,54,0.1,0.1,979.2,92.7,-1.0, -0.363918662071228, 9.53849983215332, 0.37828385829925537, -0.051082808524370193, -0.003192675532773137, -0.02766985446214676,0.0019153594970703126,0.004883227725553393,0.004691664391890894,0.0,0.0004256901331245899,0.0004256904125213623,
2021-01-27,10:37:24:80,51.022673,7.561794,312.6,2.8,10,0.1,54,0.1,0.1,979.2,92.7,-1.0, -0.363918662071228, 9.552865028381348, 0.3878606855869293, -0.051082808524370193, -0.003192675532773137, -0.026605628430843353,0.0019153594970703126,0.004883227725553393,0.004691664391890894,0.0,0.0004256901331245899,0.0004256904125213623,
2021-01-27,10:37:25:00,51.022673,7.561794,312.6,2.8,9,0.1,177,0.2,0.1,979.2,92.7,-1.0,-0.35913026332855225, 9.543288230895996, 0.38307225704193115, -0.051082808524370193, -0.004256900865584612, -0.02766985446214676,0.004883227725553393,0.00558418454437604,0.0038307324051900468,0.0,0.0005213618073463443,0.0004256904125213623,
2021-01-27,10:37:25:20,51.022673,7.561794,312.6,2.8,9,0.1,177,0.2,0.1,979.2,92.7,-1.0, -0.363918662071228, 9.528923034667969, 0.3878606855869293, -0.051082808524370193, -0.003192675532773137, -0.026605628430843353,0.004883227725553393,0.00558418454437604,0.0038307324051900468,0.0,0.0005213618073463443,0.0004256904125213623,
2021-01-27,10:37:25:40,51.022673,7.561794,312.6,2.8,9,0.1,177,0.2,0.1,979.2,92.7,-1.0, -0.3734954595565796, 9.53849983215332, 0.3878606855869293, -0.051082808524370193, -0.003192675532773137, -0.02766985446214676,0.004883227725553393,0.00558418454437604,0.0038307324051900468,0.0,0.0005213618073463443,0.0004256904125213623,
2021-01-27,10:37:25:60,51.022673,7.561794,312.6,2.8,9,0.1,177,0.2,0.1,979.2,92.7,-1.0, -0.3687070608139038, 9.543288230895996, 0.37828385829925537, -0.051082808524370193, -0.004256900865584612, -0.02766985446214676,0.004883227725553393,0.00558418454437604,0.0038307324051900468,0.0,0.0005213618073463443,0.0004256904125213623,
2021-01-27,10:37:25:80,51.022673,7.561794,312.6,2.8,9,0.1,177,0.2,0.1,979.2,92.7,-1.0, -0.363918662071228, 9.543288230895996, 0.3878606855869293, -0.051082808524370193, -0.004256900865584612, -0.02766985446214676,0.004883227725553393,0.00558418454437604,0.0038307324051900468,0.0,0.0005213618073463443,0.0004256904125213623,
2021-01-27,10:37:26:00,51.022674,7.561794,312.8,2.8,10,0.1,184,0.2,0.1,979.2,93.1,-0.9,-0.35913026332855225, 9.543288230895996, 0.38307225704193115, -0.0521470308303833, -0.003192675532773137, -0.026605628430843353,0.003830718994140625,0.0023458267209080386,0.0023458413210046387,0.0006730744627924726,0.0005213618073463443,0.0005213621495361084,
2021-01-27,10:37:26:20,51.022674,7.561794,312.8,2.8,10,0.1,184,0.2,0.1,979.2,93.1,-0.9, -0.363918662071228, 9.53849983215332, 0.38307225704193115, -0.051082808524370193, -0.003192675532773137, -0.026605628430843353,0.003830718994140625,0.0023458267209080386,0.0023458413210046387,0.0006730744627924726,0.0005213618073463443,0.0005213621495361084,
2021-01-27,10:37:26:40,51.022674,7.561794,312.8,2.8,10,0.1,184,0.2,0.1,979.2,93.1,-0.9, -0.363918662071228, 9.543288230895996, 0.3878606855869293, -0.051082808524370193, -0.004256900865584612, -0.02766985446214676,0.003830718994140625,0.0023458267209080386,0.0023458413210046387,0.0006730744627924726,0.0005213618073463443,0.0005213621495361084,
2021-01-27,10:37:26:60,51.022674,7.561794,312.8,2.8,10,0.1,184,0.2,0.1,979.2,93.1,-0.9, -0.363918662071228, 9.543288230895996, 0.3878606855869293, -0.05001858249306679, -0.004256900865584612, -0.02766985446214676,0.003830718994140625,0.0023458267209080386,0.0023458413210046387,0.0006730744627924726,0.0005213618073463443,0.0005213621495361084,
2021-01-27,10:37:26:80,51.022674,7.561794,312.8,2.8,10,0.1,184,0.2,0.1,979.2,93.1,-0.9, -0.35434186458587646, 9.53849983215332, 0.38307225704193115, -0.051082808524370193, -0.004256900865584612, -0.026605628430843353,0.003830718994140625,0.0023458267209080386,0.0023458413210046387,0.0006730744627924726,0.0005213618073463443,0.0005213621495361084,
2021-01-27,10:37:27:00,51.022674,7.561795,312.8,2.8,10,0.1,351,0.0,0.1,979.3,93.1,-0.9,-0.363918662071228, 9.53849983215332, 0.3734954595565796, -0.051082808524370193, -0.004256900865584612, -0.02766985446214676,0.00558418454437604,0.003583309505270378,0.0035833095052703783,0.0,0.0005213618073463443,0.0004256904125213623,
2021-01-27,10:37:27:20,51.022674,7.561795,312.8,2.8,10,0.1,351,0.0,0.1,979.3,93.1,-0.9, -0.3687070608139038, 9.53849983215332, 0.37828385829925537, -0.051082808524370193, -0.003192675532773137, -0.02766985446214676,0.00558418454437604,0.003583309505270378,0.0035833095052703783,0.0,0.0005213618073463443,0.0004256904125213623,
2021-01-27,10:37:27:40,51.022674,7.561795,312.8,2.8,10,0.1,351,0.0,0.1,979.3,93.1,-0.9, -0.3687070608139038, 9.543288230895996, 0.38307225704193115, -0.051082808524370193, -0.004256900865584612, -0.026605628430843353,0.00558418454437604,0.003583309505270378,0.0035833095052703783,0.0,0.0005213618073463443,0.0004256904125213623,
2021-01-27,10:37:27:60,51.022674,7.561795,312.8,2.8,10,0.1,351,0.0,0.1,979.3,93.1,-0.9, -0.35913026332855225, 9.533711433410645, 0.37828385829925537, -0.051082808524370193, -0.003192675532773137, -0.02766985446214676,0.00558418454437604,0.003583309505270378,0.0035833095052703783,0.0,0.0005213618073463443,0.0004256904125213623,
2021-01-27,10:37:27:80,51.022674,7.561795,312.8,2.8,10,0.1,351,0.0,0.1,979.3,93.1,-0.9, -0.35434186458587646, 9.543288230895996, 0.38307225704193115, -0.051082808524370193, -0.003192675532773137, -0.02766985446214676,0.00558418454437604,0.003583309505270378,0.0035833095052703783,0.0,0.0005213618073463443,0.0004256904125213623,
2021-01-27,10:37:28:00,51.022674,7.561795,312.6,2.8,10,0.1,144,0.2,0.1,979.2,92.7,-0.9,-0.35434186458587646, 9.548076629638672, 0.38307225704193115, -0.051082808524370193, -0.003192675532773137, -0.02766985446214676,0.004883227725553393,0.004883227725553393,0.004691660741873843,0.0,0.0004256901331245899,0.0004256904125213623,
2021-01-27,10:37:28:20,51.022674,7.561795,312.6,2.8,10,0.1,144,0.2,0.1,979.2,92.7,-0.9, -0.35913026332855225, 9.53849983215332, 0.3878606855869293, -0.051082808524370193, -0.003192675532773137, -0.02766985446214676,0.004883227725553393,0.004883227725553393,0.004691660741873843,0.0,0.0004256901331245899,0.0004256904125213623,
2021-01-27,10:37:28:40,51.022674,7.561795,312.6,2.8,10,0.1,144,0.2,0.1,979.2,92.7,-0.9, -0.363918662071228, 9.53849983215332, 0.38307225704193115, -0.051082808524370193, -0.003192675532773137, -0.02766985446214676,0.004883227725553393,0.004883227725553393,0.004691660741873843,0.0,0.0004256901331245899,0.0004256904125213623,
2021-01-27,10:37:28:60,51.022674,7.561795,312.6,2.8,10,0.1,144,0.2,0.1,979.2,92.7,-0.9, -0.3687070608139038, 9.533711433410645, 0.38307225704193115, -0.051082808524370193, -0.003192675532773137, -0.02766985446214676,0.004883227725553393,0.004883227725553393,0.004691660741873843,0.0,0.0004256901331245899,0.0004256904125213623,
2021-01-27,10:37:28:80,51.022674,7.561795,312.6,2.8,10,0.1,144,0.2,0.1,979.2,92.7,-0.9, -0.363918662071228, 9.543288230895996, 0.3734954595565796, -0.051082808524370193, -0.004256900865584612, -0.026605628430843353,0.004883227725553393,0.004883227725553393,0.004691660741873843,0.0,0.0004256901331245899,0.0004256904125213623,
2021-01-27,10:37:29:00,51.022675,7.561793,312.7,2.8,10,0.1,93,0.2,0.0,979.2,92.0,-1.1,-0.3687070608139038, 9.543288230895996, 0.3734954595565796, -0.051082808524370193, -0.003192675532773137, -0.026605628430843353,0.003028449274388396,0.003028449274388396,0.00558418454437604,0.0,0.0005213618073463443,0.0005213621495361084,
2021-01-27,10:37:29:20,51.022675,7.561793,312.7,2.8,10,0.1,93,0.2,0.0,979.2,92.0,-1.1, -0.363918662071228, 9.53849983215332, 0.38307225704193115, -0.051082808524370193, -0.003192675532773137, -0.02766985446214676,0.003028449274388396,0.003028449274388396,0.00558418454437604,0.0,0.0005213618073463443,0.0005213621495361084,
2021-01-27,10:37:29:40,51.022675,7.561793,312.7,2.8,10,0.1,93,0.2,0.0,979.2,92.0,-1.1, -0.363918662071228, 9.543288230895996, 0.38307225704193115, -0.051082808524370193, -0.003192675532773137, -0.026605628430843353,0.003028449274388396,0.003028449274388396,0.00558418454437604,0.0,0.0005213618073463443,0.0005213621495361084,
2021-01-27,10:37:29:60,51.022675,7.561793,312.7,2.8,10,0.1,93,0.2,0.0,979.2,92.0,-1.1, -0.363918662071228, 9.548076629638672, 0.3687070608139038, -0.051082808524370193, -0.004256900865584612, -0.02766985446214676,0.003028449274388396,0.003028449274388396,0.00558418454437604,0.0,0.0005213618073463443,0.0005213621495361084,
2021-01-27,10:37:29:80,51.022675,7.561793,312.7,2.8,10,0.1,93,0.2,0.0,979.2,92.0,-1.1, -0.35913026332855225, 9.543288230895996, 0.37828385829925537, -0.051082808524370193, -0.004256900865584612, -0.026605628430843353,0.003028449274388396,0.003028449274388396,0.00558418454437604,0.0,0.0005213618073463443,0.0005213621495361084,
2021-01-27,10:37:30:00,51.022675,7.561793,313.0,2.8,10,0.1,210,0.2,0.0,979.3,92.3,-1.1,-0.35913026332855225, 9.552865028381348, 0.38307225704193115, -0.051082808524370193, -0.003192675532773137, -0.026605628430843353,0.00558418454437604,0.007780227056441718,0.003830718994140625,0.0,0.0004256901331245899,0.0005213621495361084,
2021-01-27,10:37:30:20,51.022675,7.561793,313.0,2.8,10,0.1,210,0.2,0.0,979.3,92.3,-1.1, -0.363918662071228, 9.53849983215332, 0.38307225704193115, -0.051082808524370193, -0.003192675532773137, -0.026605628430843353,0.00558418454437604,0.007780227056441718,0.003830718994140625,0.0,0.0004256901331245899,0.0005213621495361084,
2021-01-27,10:37:30:40,51.022675,7.561793,313.0,2.8,10,0.1,210,0.2,0.0,979.3,92.3,-1.1, -0.35434186458587646, 9.53849983215332, 0.37828385829925537, -0.051082808524370193, -0.003192675532773137, -0.02766985446214676,0.00558418454437604,0.007780227056441718,0.003830718994140625,0.0,0.0004256901331245899,0.0005213621495361084,
2021-01-27,10:37:30:60,51.022675,7.561793,313.0,2.8,10,0.1,210,0.2,0.0,979.3,92.3,-1.1, -0.3687070608139038, 9.543288230895996, 0.38307225704193115, -0.051082808524370193, -0.003192675532773137, -0.02766985446214676,0.00558418454437604,0.007780227056441718,0.003830718994140625,0.0,0.0004256901331245899,0.0005213621495361084,
2021-01-27,10:37:30:80,51.022675,7.561793,313.0,2.8,10,0.1,210,0.2,0.0,979.3,92.3,-1.1, -0.3687070608139038, 9.528923034667969, 0.3734954595565796, -0.051082808524370193, -0.004256900865584612, -0.02766985446214676,0.00558418454437604,0.007780227056441718,0.003830718994140625,0.0,0.0004256901331245899,0.0005213621495361084,
2021-01-27,10:37:31:00,51.022676,7.561793,313.1,2.8,9,0.1,219,-0.1,0.0,979.3,92.6,-1.1,-0.363918662071228, 9.533711433410645, 0.3734954595565796, -0.051082808524370193, -0.003192675532773137, -0.02766985446214676,0.0035833095052703783,0.004282874036799028,0.006495312376242204,0.0,0.0004256901331245899,0.0004256904125213623,
2021-01-27,10:37:31:20,51.022676,7.561793,313.1,2.8,9,0.1,219,-0.1,0.0,979.3,92.6,-1.1, -0.3734954595565796, 9.543288230895996, 0.38307225704193115, -0.051082808524370193, -0.004256900865584612, -0.026605628430843353,0.0035833095052703783,0.004282874036799028,0.006495312376242204,0.0,0.0004256901331245899,0.0004256904125213623,
2021-01-27,10:37:31:40,51.022676,7.561793,313.1,2.8,9,0.1,219,-0.1,0.0,979.3,92.6,-1.1, -0.363918662071228, 9.543288230895996, 0.3878606855869293, -0.051082808524370193, -0.004256900865584612, -0.02766985446214676,0.0035833095052703783,0.004282874036799028,0.006495312376242204,0.0,0.0004256901331245899,0.0004256904125213623,
2021-01-27,10:37:31:60,51.022676,7.561793,313.1,2.8,9,0.1,219,-0.1,0.0,979.3,92.6,-1.1, -0.3687070608139038, 9.533711433410645, 0.3878606855869293, -0.051082808524370193, -0.004256900865584612, -0.02766985446214676,0.0035833095052703783,0.004282874036799028,0.006495312376242204,0.0,0.0004256901331245899,0.0004256904125213623,
2021-01-27,10:37:31:80,51.022676,7.561793,313.1,2.8,9,0.1,219,-0.1,0.0,979.3,92.6,-1.1, -0.3687070608139038, 9.53849983215332, 0.3926490843296051, -0.051082808524370193, -0.004256900865584612, -0.02766985446214676,0.0035833095052703783,0.004282874036799028,0.006495312376242204,0.0,0.0004256901331245899,0.0004256904125213623,
2021-01-27,10:37:32:00,51.022675,7.561793,312.9,2.8,10,0.2,22,0.1,0.0,979.2,92.8,-1.0,-0.3687070608139038, 9.548076629638672, 0.37828385829925537, -0.051082808524370193, -0.003192675532773137, -0.02766985446214676,0.0023458267209080386,0.004691653441816077,0.003028458698719025,0.0,0.0,0.0,
2021-01-27,10:37:32:20,51.022675,7.561793,312.9,2.8,10,0.2,22,0.1,0.0,979.2,92.8,-1.0, -0.363918662071228, 9.53849983215332, 0.3878606855869293, -0.051082808524370193, -0.003192675532773137, -0.02766985446214676,0.0023458267209080386,0.004691653441816077,0.003028458698719025,0.0,0.0,0.0,
2021-01-27,10:37:32:40,51.022675,7.561793,312.9,2.8,10,0.2,22,0.1,0.0,979.2,92.8,-1.0, -0.3687070608139038, 9.53849983215332, 0.38307225704193115, -0.051082808524370193, -0.003192675532773137, -0.02766985446214676,0.0023458267209080386,0.004691653441816077,0.003028458698719025,0.0,0.0,0.0,
2021-01-27,10:37:32:60,51.022675,7.561793,312.9,2.8,10,0.2,22,0.1,0.0,979.2,92.8,-1.0, -0.363918662071228, 9.548076629638672, 0.38307225704193115, -0.051082808524370193, -0.003192675532773137, -0.02766985446214676,0.0023458267209080386,0.004691653441816077,0.003028458698719025,0.0,0.0,0.0,
2021-01-27,10:37:32:80,51.022675,7.561793,312.9,2.8,10,0.2,22,0.1,0.0,979.2,92.8,-1.0, -0.3687070608139038, 9.53849983215332, 0.38307225704193115, -0.051082808524370193, -0.003192675532773137, -0.02766985446214676,0.0023458267209080386,0.004691653441816077,0.003028458698719025,0.0,0.0,0.0,
2021-01-27,10:37:33:00,51.022674,7.561793,312.8,2.8,10,0.1,38,-0.1,0.0,979.2,93.0,-1.0,-0.3687070608139038, 9.543288230895996, 0.38307225704193115, -0.051082808524370193, -0.003192675532773137, -0.02766985446214676,0.004883227725553393,0.005245428011385801,0.010919242213133935,0.0,0.0005213618073463443,0.0005213621495361084,
2021-01-27,10:37:33:20,51.022674,7.561793,312.8,2.8,10,0.1,38,-0.1,0.0,979.2,93.0,-1.0, -0.37828385829925537, 9.543288230895996, 0.3926490843296051, -0.051082808524370193, -0.004256900865584612, -0.026605628430843353,0.004883227725553393,0.005245428011385801,0.010919242213133935,0.0,0.0005213618073463443,0.0005213621495361084,
2021-01-27,10:37:33:40,51.022674,7.561793,312.8,2.8,10,0.1,38,-0.1,0.0,979.2,93.0,-1.0, -0.3734954595565796, 9.552865028381348, 0.3974374830722809, -0.051082808524370193, -0.003192675532773137, -0.026605628430843353,0.004883227725553393,0.005245428011385801,0.010919242213133935,0.0,0.0005213618073463443,0.0005213621495361084,
2021-01-27,10:37:33:60,51.022674,7.561793,312.8,2.8,10,0.1,38,-0.1,0.0,979.2,93.0,-1.0, -0.3687070608139038, 9.53849983215332, 0.3687070608139038, -0.051082808524370193, -0.003192675532773137, -0.02766985446214676,0.004883227725553393,0.005245428011385801,0.010919242213133935,0.0,0.0005213618073463443,0.0005213621495361084,
2021-01-27,10:37:33:80,51.022674,7.561793,312.8,2.8,10,0.1,38,-0.1,0.0,979.2,93.0,-1.0, -0.363918662071228, 9.53849983215332, 0.3734954595565796, -0.051082808524370193, -0.004256900865584612, -0.026605628430843353,0.004883227725553393,0.005245428011385801,0.010919242213133935,0.0,0.0005213618073463443,0.0005213621495361084,
2021-01-27,10:37:34:00,51.022674,7.561793,313.0,2.8,10,0.1,306,0.1,0.1,979.1,92.8,-0.9,-0.3687070608139038, 9.543288230895996, 0.38307225704193115, -0.051082808524370193, -0.004256900865584612, -0.026605628430843353,0.004883227725553393,0.0023458267209080386,0.0023458267209080386,0.0005213621495361084,0.0004256901331245899,0.0004256904125213623,
2021-01-27,10:37:34:20,51.022674,7.561793,313.0,2.8,10,0.1,306,0.1,0.1,979.1,92.8,-0.9, -0.363918662071228, 9.53849983215332, 0.37828385829925537, -0.051082808524370193, -0.004256900865584612, -0.02766985446214676,0.004883227725553393,0.0023458267209080386,0.0023458267209080386,0.0005213621495361084,0.0004256901331245899,0.0004256904125213623,
2021-01-27,10:37:34:40,51.022674,7.561793,313.0,2.8,10,0.1,306,0.1,0.1,979.1,92.8,-0.9, -0.3687070608139038, 9.53849983215332, 0.37828385829925537, -0.05001858249306679, -0.004256900865584612, -0.02766985446214676,0.004883227725553393,0.0023458267209080386,0.0023458267209080386,0.0005213621495361084,0.0004256901331245899,0.0004256904125213623,
2021-01-27,10:37:34:60,51.022674,7.561793,313.0,2.8,10,0.1,306,0.1,0.1,979.1,92.8,-0.9, -0.3734954595565796, 9.53849983215332, 0.38307225704193115, -0.05001858249306679, -0.004256900865584612, -0.02766985446214676,0.004883227725553393,0.0023458267209080386,0.0023458267209080386,0.0005213621495361084,0.0004256901331245899,0.0004256904125213623,
2021-01-27,10:37:34:80,51.022674,7.561793,313.0,2.8,10,0.1,306,0.1,0.1,979.1,92.8,-0.9, -0.37828385829925537, 9.543288230895996, 0.37828385829925537, -0.051082808524370193, -0.003192675532773137, -0.02766985446214676,0.004883227725553393,0.0023458267209080386,0.0023458267209080386,0.0005213621495361084,0.0004256901331245899,0.0004256904125213623,
2021-01-27,10:37:35:00,51.022675,7.561795,312.9,2.8,10,0.2,205,-0.1,0.0,979.2,93.1,-1.0,-0.37828385829925537, 9.53849983215332, 0.37828385829925537, -0.051082808524370193, -0.003192675532773137, -0.02766985446214676,0.006056898548776792,0.003830718994140625,0.0035833095052703783,0.0004256904125213623,0.0005213618073463443,0.0004256904125213623,
2021-01-27,10:37:35:20,51.022675,7.561795,312.9,2.8,10,0.2,205,-0.1,0.0,979.2,93.1,-1.0, -0.37828385829925537, 9.543288230895996, 0.37828385829925537, -0.051082808524370193, -0.003192675532773137, -0.026605628430843353,0.006056898548776792,0.003830718994140625,0.0035833095052703783,0.0004256904125213623,0.0005213618073463443,0.0004256904125213623,
2021-01-27,10:37:35:40,51.022675,7.561795,312.9,2.8,10,0.2,205,-0.1,0.0,979.2,93.1,-1.0, -0.3687070608139038, 9.543288230895996, 0.3734954595565796, -0.05001858249306679, -0.003192675532773137, -0.02766985446214676,0.006056898548776792,0.003830718994140625,0.0035833095052703783,0.0004256904125213623,0.0005213618073463443,0.0004256904125213623,
2021-01-27,10:37:35:60,51.022675,7.561795,312.9,2.8,10,0.2,205,-0.1,0.0,979.2,93.1,-1.0, -0.37828385829925537, 9.533711433410645, 0.3734954595565796, -0.051082808524370193, -0.004256900865584612, -0.02766985446214676,0.006056898548776792,0.003830718994140625,0.0035833095052703783,0.0004256904125213623,0.0005213618073463443,0.0004256904125213623,
2021-01-27,10:37:35:80,51.022675,7.561795,312.9,2.8,10,0.2,205,-0.1,0.0,979.2,93.1,-1.0, -0.363918662071228, 9.543288230895996, 0.38307225704193115, -0.051082808524370193, -0.004256900865584612, -0.02766985446214676,0.006056898548776792,0.003830718994140625,0.0035833095052703783,0.0004256904125213623,0.0005213618073463443,0.0004256904125213623,
2021-01-27,10:37:36:00,51.022675,7.561796,312.9,2.8,10,0.0,13,0.1,0.0,979.2,93.2,-0.9,-0.37828385829925537, 9.528923034667969, 0.3974374830722809, -0.05001858249306679, -0.004256900865584612, -0.02766985446214676,0.004883227725553393,0.009383306883632155,0.012264297385810521,0.0004256904125213623,0.0005213618073463443,0.0004256904125213623,
2021-01-27,10:37:36:20,51.022675,7.561796,312.9,2.8,10,0.0,13,0.1,0.0,979.2,93.2,-0.9, -0.3687070608139038, 9.53849983215332, 0.38307225704193115, -0.051082808524370193, -0.003192675532773137, -0.026605628430843353,0.004883227725553393,0.009383306883632155,0.012264297385810521,0.0004256904125213623,0.0005213618073463443,0.0004256904125213623,
2021-01-27,10:37:36:40,51.022675,7.561796,312.9,2.8,10,0.0,13,0.1,0.0,979.2,93.2,-0.9, -0.37828385829925537, 9.557653427124023, 0.3926490843296051, -0.051082808524370193, -0.004256900865584612, -0.02766985446214676,0.004883227725553393,0.009383306883632155,0.012264297385810521,0.0004256904125213623,0.0005213618073463443,0.0004256904125213623,
2021-01-27,10:37:36:60,51.022675,7.561796,312.9,2.8,10,0.0,13,0.1,0.0,979.2,93.2,-0.9, -0.3734954595565796, 9.53849983215332, 0.363918662071228, -0.051082808524370193, -0.003192675532773137, -0.02766985446214676,0.004883227725553393,0.009383306883632155,0.012264297385810521,0.0004256904125213623,0.0005213618073463443,0.0004256904125213623,
2021-01-27,10:37:36:80,51.022675,7.561796,312.9,2.8,10,0.0,13,0.1,0.0,979.2,93.2,-0.9, -0.38307225704193115, 9.53849983215332, 0.3734954595565796, -0.051082808524370193, -0.003192675532773137, -0.02766985446214676,0.004883227725553393,0.009383306883632155,0.012264297385810521,0.0004256904125213623,0.0005213618073463443,0.0004256904125213623,
2021-01-27,10:37:37:00,51.022675,7.561797,312.8,2.8,10,0.1,232,0.0,0.1,979.3,93.3,-0.9,-0.37828385829925537, 9.533711433410645, 0.3734954595565796, -0.051082808524370193, -0.004256900865584612, -0.02766985446214676,0.006056898548776792,0.005746078491210937,0.007037491518355739,0.0,0.0004256901331245899,0.0004256904125213623,
2021-01-27,10:37:37:20,51.022675,7.561797,312.8,2.8,10,0.1,232,0.0,0.1,979.3,93.3,-0.9, -0.38307225704193115, 9.53849983215332, 0.3687070608139038, -0.051082808524370193, -0.004256900865584612, -0.02766985446214676,0.006056898548776792,0.005746078491210937,0.007037491518355739,0.0,0.0004256901331245899,0.0004256904125213623,
2021-01-27,10:37:37:40,51.022675,7.561797,312.8,2.8,10,0.1,232,0.0,0.1,979.3,93.3,-0.9, -0.3687070608139038, 9.548076629638672, 0.3687070608139038, -0.051082808524370193, -0.003192675532773137, -0.02766985446214676,0.006056898548776792,0.005746078491210937,0.007037491518355739,0.0,0.0004256901331245899,0.0004256904125213623,
2021-01-27,10:37:37:60,51.022675,7.561797,312.8,2.8,10,0.1,232,0.0,0.1,979.3,93.3,-0.9, -0.3687070608139038, 9.548076629638672, 0.3734954595565796, -0.051082808524370193, -0.004256900865584612, -0.026605628430843353,0.006056898548776792,0.005746078491210937,0.007037491518355739,0.0,0.0004256901331245899,0.0004256904125213623,
2021-01-27,10:37:37:80,51.022675,7.561797,312.8,2.8,10,0.1,232,0.0,0.1,979.3,93.3,-0.9, -0.3687070608139038, 9.53849983215332, 0.3878606855869293, -0.051082808524370193, -0.004256900865584612, -0.02766985446214676,0.006056898548776792,0.005746078491210937,0.007037491518355739,0.0,0.0004256901331245899,0.0004256904125213623,
2021-01-27,10:37:38:00,51.022675,7.561798,312.7,2.8,10,0.1,227,0.0,0.1,979.3,92.9,-0.9,-0.40222588181495667, 9.528923034667969, 0.3687070608139038, -0.04895435646176338, -0.005321125965565443, -0.028734078630805016,0.012486627668797906,0.00558418454437604,0.0035833095052703783,0.0008513808250427246,0.0008513801847584557,0.0007963932408693983,
2021-01-27,10:37:38:20,51.022675,7.561798,312.7,2.8,10,0.1,227,0.0,0.1,979.3,92.9,-0.9, -0.37828385829925537, 9.543288230895996, 0.3734954595565796, -0.051082808524370193, -0.004256900865584612, -0.02766985446214676,0.012486627668797906,0.00558418454437604,0.0035833095052703783,0.0008513808250427246,0.0008513801847584557,0.0007963932408693983,
2021-01-27,10:37:38:40,51.022675,7.561798,312.7,2.8,10,0.1,227,0.0,0.1,979.3,92.9,-0.9, -0.3734954595565796, 9.53849983215332, 0.37828385829925537, -0.051082808524370193, -0.003192675532773137, -0.02766985446214676,0.012486627668797906,0.00558418454437604,0.0035833095052703783,0.0008513808250427246,0.0008513801847584557,0.0007963932408693983,
2021-01-27,10:37:38:60,51.022675,7.561798,312.7,2.8,10,0.1,227,0.0,0.1,979.3,92.9,-0.9, -0.3687070608139038, 9.528923034667969, 0.3734954595565796, -0.051082808524370193, -0.003192675532773137, -0.026605628430843353,0.012486627668797906,0.00558418454437604,0.0035833095052703783,0.0008513808250427246,0.0008513801847584557,0.0007963932408693983,
2021-01-27,10:37:38:80,51.022675,7.561798,312.7,2.8,10,0.1,227,0.0,0.1,979.3,92.9,-0.9, -0.3687070608139038, 9.533711433410645, 0.3687070608139038, -0.051082808524370193, -0.003192675532773137, -0.026605628430843353,0.012486627668797906,0.00558418454437604,0.0035833095052703783,0.0008513808250427246,0.0008513801847584557,0.0007963932408693983,
2021-01-27,10:37:39:00,51.022675,7.561800,312.5,2.8,10,0.2,207,-0.1,0.2,979.3,92.5,-0.9,-0.3734954595565796, 9.528923034667969, 0.363918662071228, -0.051082808524370193, -0.003192675532773137, -0.02766985446214676,0.005245428011385801,0.007780227056441718,0.010314535964695457,0.0004256889224052429,0.0005213618073463443,0.0004256904125213623,
2021-01-27,10:37:39:20,51.022675,7.561800,312.5,2.8,10,0.2,207,-0.1,0.2,979.3,92.5,-0.9, -0.3687070608139038, 9.548076629638672, 0.37828385829925537, -0.0521470308303833, -0.004256900865584612, -0.026605628430843353,0.005245428011385801,0.007780227056441718,0.010314535964695457,0.0004256889224052429,0.0005213618073463443,0.0004256904125213623,
2021-01-27,10:37:39:40,51.022675,7.561800,312.5,2.8,10,0.2,207,-0.1,0.2,979.3,92.5,-0.9, -0.38307225704193115, 9.543288230895996, 0.35913026332855225, -0.051082808524370193, -0.004256900865584612, -0.02766985446214676,0.005245428011385801,0.007780227056441718,0.010314535964695457,0.0004256889224052429,0.0005213618073463443,0.0004256904125213623,
2021-01-27,10:37:39:60,51.022675,7.561800,312.5,2.8,10,0.2,207,-0.1,0.2,979.3,92.5,-0.9, -0.3687070608139038, 9.548076629638672, 0.3878606855869293, -0.051082808524370193, -0.003192675532773137, -0.02766985446214676,0.005245428011385801,0.007780227056441718,0.010314535964695457,0.0004256889224052429,0.0005213618073463443,0.0004256904125213623,
2021-01-27,10:37:39:80,51.022675,7.561800,312.5,2.8,10,0.2,207,-0.1,0.2,979.3,92.5,-0.9, -0.3734954595565796, 9.533711433410645, 0.3687070608139038, -0.051082808524370193, -0.004256900865584612, -0.02766985446214676,0.005245428011385801,0.007780227056441718,0.010314535964695457,0.0004256889224052429,0.0005213618073463443,0.0004256904125213623,
2021-01-27,10:37:40:00,51.022677,7.561801,312.5,2.8,9,0.0,211,-0.1,0.2,979.2,91.9,-1.0,-0.37828385829925537, 9.53849983215332, 0.38307225704193115, -0.051082808524370193, -0.004256900865584612, -0.02766985446214676,0.0023458267209080386,0.003028449274388396,0.0035833095052703783,0.0,0.0004256901331245899,0.0005213621495361084,
2021-01-27,10:37:40:20,51.022677,7.561801,312.5,2.8,9,0.0,211,-0.1,0.2,979.2,91.9,-1.0, -0.37828385829925537, 9.533711433410645, 0.37828385829925537, -0.051082808524370193, -0.003192675532773137, -0.026605628430843353,0.0023458267209080386,0.003028449274388396,0.0035833095052703783,0.0,0.0004256901331245899,0.0005213621495361084,
2021-01-27,10:37:40:40,51.022677,7.561801,312.5,2.8,9,0.0,211,-0.1,0.2,979.2,91.9,-1.0, -0.37828385829925537, 9.543288230895996, 0.38307225704193115, -0.051082808524370193, -0.003192675532773137, -0.026605628430843353,0.0023458267209080386,0.003028449274388396,0.0035833095052703783,0.0,0.0004256901331245899,0.0005213621495361084,
2021-01-27,10:37:40:60,51.022677,7.561801,312.5,2.8,9,0.0,211,-0.1,0.2,979.2,91.9,-1.0, -0.3734954595565796, 9.53849983215332, 0.3734954595565796, -0.051082808524370193, -0.003192675532773137, -0.02766985446214676,0.0023458267209080386,0.003028449274388396,0.0035833095052703783,0.0,0.0004256901331245899,0.0005213621495361084,
2021-01-27,10:37:40:80,51.022677,7.561801,312.5,2.8,9,0.0,211,-0.1,0.2,979.2,91.9,-1.0, -0.3734954595565796, 9.53849983215332, 0.37828385829925537, -0.051082808524370193, -0.003192675532773137, -0.02766985446214676,0.0023458267209080386,0.003028449274388396,0.0035833095052703783,0.0,0.0004256901331245899,0.0005213621495361084,
2021-01-27,10:37:41:00,51.022677,7.561802,312.3,2.8,10,0.0,180,0.0,0.2,979.3,92.3,-0.9,-0.3687070608139038, 9.543288230895996, 0.3687070608139038, -0.05001858249306679, -0.004256900865584612, -0.028734078630805016,0.007166629365050591,0.00635252879042605,0.008238272698559004,0.0008513808250427246,0.0010427234435978093,0.0010427231584397114,
2021-01-27,10:37:41:20,51.022677,7.561802,312.3,2.8,10,0.0,180,0.0,0.2,979.3,92.3,-0.9, -0.3734954595565796, 9.557653427124023, 0.35913026332855225, -0.04895435646176338, -0.006385351065546274, -0.026605628430843353,0.007166629365050591,0.00635252879042605,0.008238272698559004,0.0008513808250427246,0.0010427234435978093,0.0010427231584397114,
2021-01-27,10:37:41:40,51.022677,7.561802,312.3,2.8,10,0.0,180,0.0,0.2,979.3,92.3,-0.9, -0.3878606855869293, 9.548076629638672, 0.363918662071228, -0.051082808524370193, -0.004256900865584612, -0.026605628430843353,0.007166629365050591,0.00635252879042605,0.008238272698559004,0.0008513808250427246,0.0010427234435978093,0.0010427231584397114,
2021-01-27,10:37:41:60,51.022677,7.561802,312.3,2.8,10,0.0,180,0.0,0.2,979.3,92.3,-0.9, -0.3687070608139038, 9.53849983215332, 0.38307225704193115, -0.051082808524370193, -0.004256900865584612, -0.025541404262185097,0.007166629365050591,0.00635252879042605,0.008238272698559004,0.0008513808250427246,0.0010427234435978093,0.0010427231584397114,
2021-01-27,10:37:41:80,51.022677,7.561802,312.3,2.8,10,0.0,180,0.0,0.2,979.3,92.3,-0.9, -0.37828385829925537, 9.548076629638672, 0.363918662071228, -0.051082808524370193, -0.003192675532773137, -0.026605628430843353,0.007166629365050591,0.00635252879042605,0.008238272698559004,0.0008513808250427246,0.0010427234435978093,0.0010427231584397114,
2021-01-27,10:37:42:00,51.022677,7.561803,312.2,2.8,10,0.1,168,0.1,0.2,979.3,92.4,-0.9,-0.363918662071228, 9.53849983215332, 0.3687070608139038, -0.051082808524370193, -0.003192675532773137, -0.02766985446214676,0.007037480162724116,0.003830718994140625,0.006056898548776792,0.0004256889224052429,0.0005213618073463443,0.0005213621495361084,
2021-01-27,10:37:42:20,51.022677,7.561803,312.2,2.8,10,0.1,168,0.1,0.2,979.3,92.4,-0.9, -0.3734954595565796, 9.53849983215332, 0.37828385829925537, -0.0521470308303833, -0.003192675532773137, -0.026605628430843353,0.007037480162724116,0.003830718994140625,0.006056898548776792,0.0004256889224052429,0.0005213618073463443,0.0005213621495361084,
2021-01-27,10:37:42:40,51.022677,7.561803,312.2,2.8,10,0.1,168,0.1,0.2,979.3,92.4,-0.9, -0.35913026332855225, 9.53849983215332, 0.37828385829925537, -0.051082808524370193, -0.004256900865584612, -0.026605628430843353,0.007037480162724116,0.003830718994140625,0.006056898548776792,0.0004256889224052429,0.0005213618073463443,0.0005213621495361084,
2021-01-27,10:37:42:60,51.022677,7.561803,312.2,2.8,10,0.1,168,0.1,0.2,979.3,92.4,-0.9, -0.37828385829925537, 9.53849983215332, 0.363918662071228, -0.051082808524370193, -0.003192675532773137, -0.02766985446214676,0.007037480162724116,0.003830718994140625,0.006056898548776792,0.0004256889224052429,0.0005213618073463443,0.0005213621495361084,
2021-01-27,10:37:42:80,51.022677,7.561803,312.2,2.8,10,0.1,168,0.1,0.2,979.3,92.4,-0.9, -0.3734954595565796, 9.548076629638672, 0.37828385829925537, -0.051082808524370193, -0.004256900865584612, -0.02766985446214676,0.007037480162724116,0.003830718994140625,0.006056898548776792,0.0004256889224052429,0.0005213618073463443,0.0005213621495361084,
2021-01-27,10:37:43:00,51.022677,7.561803,312.3,2.8,11,0.1,198,0.0,0.2,979.2,91.7,-1.0,-0.363918662071228, 9.53849983215332, 0.3687070608139038, -0.051082808524370193, -0.003192675532773137, -0.026605628430843353,0.004282874036799028,0.0023458267209080386,0.006495300072721857,0.0,0.0004256901331245899,0.0005213621495361084,
2021-01-27,10:37:43:20,51.022677,7.561803,312.3,2.8,11,0.1,198,0.0,0.2,979.2,91.7,-1.0, -0.3734954595565796, 9.53849983215332, 0.38307225704193115, -0.051082808524370193, -0.003192675532773137, -0.02766985446214676,0.004282874036799028,0.0023458267209080386,0.006495300072721857,0.0,0.0004256901331245899,0.0005213621495361084,
2021-01-27,10:37:43:40,51.022677,7.561803,312.3,2.8,11,0.1,198,0.0,0.2,979.2,91.7,-1.0, -0.363918662071228, 9.543288230895996, 0.3687070608139038, -0.051082808524370193, -0.003192675532773137, -0.02766985446214676,0.004282874036799028,0.0023458267209080386,0.006495300072721857,0.0,0.0004256901331245899,0.0005213621495361084,
2021-01-27,10:37:43:60,51.022677,7.561803,312.3,2.8,11,0.1,198,0.0,0.2,979.2,91.7,-1.0, -0.3687070608139038, 9.543288230895996, 0.38307225704193115, -0.051082808524370193, -0.003192675532773137, -0.026605628430843353,0.004282874036799028,0.0023458267209080386,0.006495300072721857,0.0,0.0004256901331245899,0.0005213621495361084,
2021-01-27,10:37:43:80,51.022677,7.561803,312.3,2.8,11,0.1,198,0.0,0.2,979.2,91.7,-1.0, -0.3734954595565796, 9.543288230895996, 0.37828385829925537, -0.051082808524370193, -0.004256900865584612, -0.02766985446214676,0.004282874036799028,0.0023458267209080386,0.006495300072721857,0.0,0.0004256901331245899,0.0005213621495361084,
2021-01-27,10:37:44:00,51.022677,7.561802,312.5,2.8,11,0.1,128,0.0,0.2,979.3,91.9,-1.0,-0.35434186458587646, 9.543288230895996, 0.37828385829925537, -0.051082808524370193, -0.003192675532773137, -0.02766985446214676,0.006771818443942366,0.003028449274388396,0.00558418454437604,0.0,0.0005213618073463443,0.0005213621495361084,
2021-01-27,10:37:44:20,51.022677,7.561802,312.5,2.8,11,0.1,128,0.0,0.2,979.3,91.9,-1.0, -0.363918662071228, 9.548076629638672, 0.37828385829925537, -0.051082808524370193, -0.004256900865584612, -0.02766985446214676,0.006771818443942366,0.003028449274388396,0.00558418454437604,0.0,0.0005213618073463443,0.0005213621495361084,
2021-01-27,10:37:44:40,51.022677,7.561802,312.5,2.8,11,0.1,128,0.0,0.2,979.3,91.9,-1.0, -0.3734954595565796, 9.543288230895996, 0.363918662071228, -0.051082808524370193, -0.004256900865584612, -0.026605628430843353,0.006771818443942366,0.003028449274388396,0.00558418454437604,0.0,0.0005213618073463443,0.0005213621495361084,
2021-01-27,10:37:44:60,51.022677,7.561802,312.5,2.8,11,0.1,128,0.0,0.2,979.3,91.9,-1.0, -0.3687070608139038, 9.543288230895996, 0.3734954595565796, -0.051082808524370193, -0.003192675532773137, -0.02766985446214676,0.006771818443942366,0.003028449274388396,0.00558418454437604,0.0,0.0005213618073463443,0.0005213621495361084,
2021-01-27,10:37:44:80,51.022677,7.561802,312.5,2.8,11,0.1,128,0.0,0.2,979.3,91.9,-1.0, -0.35913026332855225, 9.53849983215332, 0.3687070608139038, -0.051082808524370193, -0.003192675532773137, -0.026605628430843353,0.006771818443942366,0.003028449274388396,0.00558418454437604,0.0,0.0005213618073463443,0.0005213621495361084,
2021-01-27,10:37:45:00,51.022677,7.561802,312.5,2.8,11,0.1,229,0.1,0.1,979.2,91.8,-1.1,-0.3687070608139038, 9.53849983215332, 0.3687070608139038, -0.051082808524370193, -0.003192675532773137, -0.026605628430843353,0.003028449274388396,0.003028449274388396,0.007166629365050591,0.0,0.0005213618073463443,0.0004256904125213623,
2021-01-27,10:37:45:20,51.022677,7.561802,312.5,2.8,11,0.1,229,0.1,0.1,979.2,91.8,-1.1, -0.363918662071228, 9.548076629638672, 0.3687070608139038, -0.051082808524370193, -0.004256900865584612, -0.02766985446214676,0.003028449274388396,0.003028449274388396,0.007166629365050591,0.0,0.0005213618073463443,0.0004256904125213623,
2021-01-27,10:37:45:40,51.022677,7.561802,312.5,2.8,11,0.1,229,0.1,0.1,979.2,91.8,-1.1, -0.3687070608139038, 9.543288230895996, 0.3878606855869293, -0.051082808524370193, -0.003192675532773137, -0.026605628430843353,0.003028449274388396,0.003028449274388396,0.007166629365050591,0.0,0.0005213618073463443,0.0004256904125213623,
2021-01-27,10:37:45:60,51.022677,7.561802,312.5,2.8,11,0.1,229,0.1,0.1,979.2,91.8,-1.1, -0.3687070608139038, 9.543288230895996, 0.3734954595565796, -0.051082808524370193, -0.004256900865584612, -0.026605628430843353,0.003028449274388396,0.003028449274388396,0.007166629365050591,0.0,0.0005213618073463443,0.0004256904125213623,
2021-01-27,10:37:45:80,51.022677,7.561802,312.5,2.8,11,0.1,229,0.1,0.1,979.2,91.8,-1.1, -0.3734954595565796, 9.543288230895996, 0.37828385829925537, -0.051082808524370193, -0.003192675532773137, -0.026605628430843353,0.003028449274388396,0.003028449274388396,0.007166629365050591,0.0,0.0005213618073463443,0.0004256904125213623,
2021-01-27,10:37:46:00,51.022676,7.561803,312.3,2.8,11,0.1,152,0.0,0.1,979.4,91.8,-1.1,-0.37828385829925537, 9.533711433410645, 0.3734954595565796, -0.051082808524370193, -0.003192675532773137, -0.02766985446214676,0.004883227725553393,0.004883227725553393,0.004883227725553393,0.0,0.0004256901331245899,0.0005213621495361084,
2021-01-27,10:37:46:20,51.022676,7.561803,312.3,2.8,11,0.1,152,0.0,0.1,979.4,91.8,-1.1, -0.3687070608139038, 9.548076629638672, 0.37828385829925537, -0.051082808524370193, -0.004256900865584612, -0.026605628430843353,0.004883227725553393,0.004883227725553393,0.004883227725553393,0.0,0.0004256901331245899,0.0005213621495361084,
2021-01-27,10:37:46:40,51.022676,7.561803,312.3,2.8,11,0.1,152,0.0,0.1,979.4,91.8,-1.1, -0.363918662071228, 9.543288230895996, 0.3687070608139038, -0.051082808524370193, -0.003192675532773137, -0.026605628430843353,0.004883227725553393,0.004883227725553393,0.004883227725553393,0.0,0.0004256901331245899,0.0005213621495361084,
2021-01-27,10:37:46:60,51.022676,7.561803,312.3,2.8,11,0.1,152,0.0,0.1,979.4,91.8,-1.1, -0.3734954595565796, 9.53849983215332, 0.38307225704193115, -0.051082808524370193, -0.003192675532773137, -0.026605628430843353,0.004883227725553393,0.004883227725553393,0.004883227725553393,0.0,0.0004256901331245899,0.0005213621495361084,
2021-01-27,10:37:46:80,51.022676,7.561803,312.3,2.8,11,0.1,152,0.0,0.1,979.4,91.8,-1.1, -0.3734954595565796, 9.53849983215332, 0.37828385829925537, -0.051082808524370193, -0.003192675532773137, -0.02766985446214676,0.004883227725553393,0.004883227725553393,0.004883227725553393,0.0,0.0004256901331245899,0.0005213621495361084,
2021-01-27,10:37:47:00,51.022677,7.561803,312.2,2.8,11,0.1,186,-0.1,0.1,979.3,91.8,-1.1,-0.363918662071228, 9.548076629638672, 0.35913026332855225, -0.0521470308303833, -0.003192675532773137, -0.026605628430843353,0.004282874036799028,0.006771818443942366,0.013678419455899664,0.0004256889224052429,0.0005213618073463443,0.0005213621495361084,
2021-01-27,10:37:47:20,51.022677,7.561803,312.2,2.8,11,0.1,186,-0.1,0.1,979.3,91.8,-1.1, -0.3734954595565796, 9.543288230895996, 0.3734954595565796, -0.051082808524370193, -0.004256900865584612, -0.02766985446214676,0.004282874036799028,0.006771818443942366,0.013678419455899664,0.0004256889224052429,0.0005213618073463443,0.0005213621495361084,
2021-01-27,10:37:47:40,51.022677,7.561803,312.2,2.8,11,0.1,186,-0.1,0.1,979.3,91.8,-1.1, -0.3687070608139038, 9.53849983215332, 0.37828385829925537, -0.051082808524370193, -0.004256900865584612, -0.02766985446214676,0.004282874036799028,0.006771818443942366,0.013678419455899664,0.0004256889224052429,0.0005213618073463443,0.0005213621495361084,
2021-01-27,10:37:47:60,51.022677,7.561803,312.2,2.8,11,0.1,186,-0.1,0.1,979.3,91.8,-1.1, -0.3734954595565796, 9.528923034667969, 0.3878606855869293, -0.051082808524370193, -0.003192675532773137, -0.026605628430843353,0.004282874036799028,0.006771818443942366,0.013678419455899664,0.0004256889224052429,0.0005213618073463443,0.0005213621495361084,
2021-01-27,10:37:47:80,51.022677,7.561803,312.2,2.8,11,0.1,186,-0.1,0.1,979.3,91.8,-1.1, -0.363918662071228, 9.533711433410645, 0.3495534360408783, -0.051082808524370193, -0.003192675532773137, -0.026605628430843353,0.004282874036799028,0.006771818443942366,0.013678419455899664,0.0004256889224052429,0.0005213618073463443,0.0005213621495361084,
2021-01-27,10:37:48:00,51.022676,7.561803,312.2,2.8,11,0.1,48,-0.1,0.1,979.3,92.0,-1.1,-0.3734954595565796, 9.543288230895996, 0.3734954595565796, -0.051082808524370193, -0.003192675532773137, -0.02766985446214676,0.004883227725553393,0.004691653441816077,0.0074181554341535335,0.0,0.0005213618073463443,0.0005213621495361084,
2021-01-27,10:37:48:20,51.022676,7.561803,312.2,2.8,11,0.1,48,-0.1,0.1,979.3,92.0,-1.1, -0.35913026332855225, 9.543288230895996, 0.37828385829925537, -0.051082808524370193, -0.004256900865584612, -0.026605628430843353,0.004883227725553393,0.004691653441816077,0.0074181554341535335,0.0,0.0005213618073463443,0.0005213621495361084,
2021-01-27,10:37:48:40,51.022676,7.561803,312.2,2.8,11,0.1,48,-0.1,0.1,979.3,92.0,-1.1, -0.363918662071228, 9.533711433410645, 0.35913026332855225, -0.051082808524370193, -0.003192675532773137, -0.02766985446214676,0.004883227725553393,0.004691653441816077,0.0074181554341535335,0.0,0.0005213618073463443,0.0005213621495361084,
2021-01-27,10:37:48:60,51.022676,7.561803,312.2,2.8,11,0.1,48,-0.1,0.1,979.3,92.0,-1.1, -0.3687070608139038, 9.543288230895996, 0.37828385829925537, -0.051082808524370193, -0.003192675532773137, -0.02766985446214676,0.004883227725553393,0.004691653441816077,0.0074181554341535335,0.0,0.0005213618073463443,0.0005213621495361084,
2021-01-27,10:37:48:80,51.022676,7.561803,312.2,2.8,11,0.1,48,-0.1,0.1,979.3,92.0,-1.1, -0.363918662071228, 9.533711433410645, 0.37828385829925537, -0.051082808524370193, -0.004256900865584612, -0.026605628430843353,0.004883227725553393,0.004691653441816077,0.0074181554341535335,0.0,0.0005213618073463443,0.0005213621495361084,
2021-01-27,10:37:49:00,51.022676,7.561802,312.1,2.8,11,0.1,172,0.0,0.0,979.2,91.8,-1.1,-0.363918662071228, 9.53849983215332, 0.3734954595565796, -0.051082808524370193, -0.003192675532773137, -0.02766985446214676,0.004883227725553393,0.003583309505270378,0.009859924010545083,0.0,0.0005213618073463443,0.0008513801731169988,
2021-01-27,10:37:49:20,51.022676,7.561802,312.1,2.8,11,0.1,172,0.0,0.0,979.2,91.8,-1.1, -0.3687070608139038, 9.548076629638672, 0.3878606855869293, -0.051082808524370193, -0.004256900865584612, -0.02766985446214676,0.004883227725553393,0.003583309505270378,0.009859924010545083,0.0,0.0005213618073463443,0.0008513801731169988,
2021-01-27,10:37:49:40,51.022676,7.561802,312.1,2.8,11,0.1,172,0.0,0.0,979.2,91.8,-1.1, -0.3687070608139038, 9.53849983215332, 0.38307225704193115, -0.051082808524370193, -0.003192675532773137, -0.026605628430843353,0.004883227725553393,0.003583309505270378,0.009859924010545083,0.0,0.0005213618073463443,0.0008513801731169988,
2021-01-27,10:37:49:60,51.022676,7.561802,312.1,2.8,11,0.1,172,0.0,0.0,979.2,91.8,-1.1, -0.3734954595565796, 9.543288230895996, 0.35913026332855225, -0.051082808524370193, -0.004256900865584612, -0.02766985446214676,0.004883227725553393,0.003583309505270378,0.009859924010545083,0.0,0.0005213618073463443,0.0008513801731169988,
2021-01-27,10:37:49:80,51.022676,7.561802,312.1,2.8,11,0.1,172,0.0,0.0,979.2,91.8,-1.1, -0.37828385829925537, 9.543288230895996, 0.3734954595565796, -0.051082808524370193, -0.004256900865584612, -0.025541404262185097,0.004883227725553393,0.003583309505270378,0.009859924010545083,0.0,0.0005213618073463443,0.0008513801731169988,
2021-01-27,10:37:50:00,51.022675,7.561802,312.1,2.8,11,0.2,17,0.1,0.1,979.2,91.9,-1.0,-0.3687070608139038, 9.548076629638672, 0.38307225704193115, -0.0521470308303833, -0.003192675532773137, -0.025541404262185097,0.007037487462778725,0.005746078491210937,0.009766461880299858,0.0004256889224052429,0.0020636092148849008,0.0022725631433975144,
2021-01-27,10:37:50:20,51.022675,7.561802,312.1,2.8,11,0.2,17,0.1,0.1,979.2,91.9,-1.0, -0.363918662071228, 9.53849983215332, 0.37828385829925537, -0.051082808524370193, -0.003192675532773137, -0.026605628430843353,0.007037487462778725,0.005746078491210937,0.009766461880299858,0.0004256889224052429,0.0020636092148849008,0.0022725631433975144,
2021-01-27,10:37:50:40,51.022675,7.561802,312.1,2.8,11,0.2,17,0.1,0.1,979.2,91.9,-1.0, -0.35434186458587646, 9.548076629638672, 0.37828385829925537, -0.051082808524370193, -0.003192675532773137, -0.026605628430843353,0.007037487462778725,0.005746078491210937,0.009766461880299858,0.0004256889224052429,0.0020636092148849008,0.0022725631433975144,
2021-01-27,10:37:50:60,51.022675,7.561802,312.1,2.8,11,0.2,17,0.1,0.1,979.2,91.9,-1.0, -0.35434186458587646, 9.53849983215332, 0.3878606855869293, -0.051082808524370193, 0.002128450432792306, -0.031926754862070084,0.007037487462778725,0.005746078491210937,0.009766461880299858,0.0004256889224052429,0.0020636092148849008,0.0022725631433975144,
2021-01-27,10:37:50:80,51.022675,7.561802,312.1,2.8,11,0.2,17,0.1,0.1,979.2,91.9,-1.0, -0.3495534360408783, 9.533711433410645, 0.35913026332855225, -0.051082808524370193, -0.002128450432792306, -0.026605628430843353,0.007037487462778725,0.005746078491210937,0.009766461880299858,0.0004256889224052429,0.0020636092148849008,0.0022725631433975144,
2021-01-27,10:37:51:00,51.022675,7.561803,312.3,2.8,11,0.1,197,0.0,0.2,979.2,92.3,-0.9,-0.35913026332855225, 9.548076629638672, 0.37828385829925537, -0.051082808524370193, -0.003192675532773137, -0.026605628430843353,0.004883227725553393,0.004282874036799028,0.006352536877596552,0.0,0.0,0.0005213621495361084,
2021-01-27,10:37:51:20,51.022675,7.561803,312.3,2.8,11,0.1,197,0.0,0.2,979.2,92.3,-0.9, -0.35434186458587646, 9.53849983215332, 0.38307225704193115, -0.051082808524370193, -0.003192675532773137, -0.026605628430843353,0.004883227725553393,0.004282874036799028,0.006352536877596552,0.0,0.0,0.0005213621495361084,
2021-01-27,10:37:51:40,51.022675,7.561803,312.3,2.8,11,0.1,197,0.0,0.2,979.2,92.3,-0.9, -0.3687070608139038, 9.548076629638672, 0.3687070608139038, -0.051082808524370193, -0.003192675532773137, -0.02766985446214676,0.004883227725553393,0.004282874036799028,0.006352536877596552,0.0,0.0,0.0005213621495361084,
2021-01-27,10:37:51:60,51.022675,7.561803,312.3,2.8,11,0.1,197,0.0,0.2,979.2,92.3,-0.9, -0.363918662071228, 9.53849983215332, 0.3878606855869293, -0.051082808524370193, -0.003192675532773137, -0.02766985446214676,0.004883227725553393,0.004282874036799028,0.006352536877596552,0.0,0.0,0.0005213621495361084,
2021-01-27,10:37:51:80,51.022675,7.561803,312.3,2.8,11,0.1,197,0.0,0.2,979.2,92.3,-0.9, -0.35913026332855225, 9.543288230895996, 0.37828385829925537, -0.051082808524370193, -0.003192675532773137, -0.02766985446214676,0.004883227725553393,0.004282874036799028,0.006352536877596552,0.0,0.0,0.0005213621495361084,
2021-01-27,10:37:52:00,51.022675,7.561804,312.3,2.8,10,0.1,210,0.0,0.3,979.2,92.0,-0.8,-0.3687070608139038, 9.548076629638672, 0.38307225704193115, -0.051082808524370193, -0.003192675532773137, -0.02766985446214676,0.004883227725553393,0.004282874036799028,0.00383073091506958,0.0004256889224052429,0.0005213618073463443,0.0005213621495361084,
2021-01-27,10:37:52:20,51.022675,7.561804,312.3,2.8,10,0.1,210,0.0,0.3,979.2,92.0,-0.8, -0.35913026332855225, 9.548076629638672, 0.3926490843296051, -0.051082808524370193, -0.004256900865584612, -0.02766985446214676,0.004883227725553393,0.004282874036799028,0.00383073091506958,0.0004256889224052429,0.0005213618073463443,0.0005213621495361084,
2021-01-27,10:37:52:40,51.022675,7.561804,312.3,2.8,10,0.1,210,0.0,0.3,979.2,92.0,-0.8, -0.363918662071228, 9.53849983215332, 0.38307225704193115, -0.0521470308303833, -0.004256900865584612, -0.026605628430843353,0.004883227725553393,0.004282874036799028,0.00383073091506958,0.0004256889224052429,0.0005213618073463443,0.0005213621495361084,
2021-01-27,10:37:52:60,51.022675,7.561804,312.3,2.8,10,0.1,210,0.0,0.3,979.2,92.0,-0.8, -0.35913026332855225, 9.543288230895996, 0.38307225704193115, -0.051082808524370193, -0.004256900865584612, -0.026605628430843353,0.004883227725553393,0.004282874036799028,0.00383073091506958,0.0004256889224052429,0.0005213618073463443,0.0005213621495361084,
2021-01-27,10:37:52:80,51.022675,7.561804,312.3,2.8,10,0.1,210,0.0,0.3,979.2,92.0,-0.8, -0.35434186458587646, 9.53849983215332, 0.38307225704193115, -0.051082808524370193, -0.003192675532773137, -0.026605628430843353,0.004883227725553393,0.004282874036799028,0.00383073091506958,0.0004256889224052429,0.0005213618073463443,0.0005213621495361084,
2021-01-27,10:37:53:00,51.022675,7.561804,312.3,2.8,10,0.1,255,0.1,0.3,979.3,91.4,-0.9,-0.363918662071228, 9.548076629638672, 0.3687070608139038, -0.051082808524370193, -0.003192675532773137, -0.026605628430843353,0.004282874036799028,0.003830718994140625,0.003830718994140625,0.0004256889224052429,0.0005213618073463443,0.0005213621495361084,
2021-01-27,10:37:53:20,51.022675,7.561804,312.3,2.8,10,0.1,255,0.1,0.3,979.3,91.4,-0.9, -0.35913026332855225, 9.543288230895996, 0.37828385829925537, -0.0521470308303833, -0.003192675532773137, -0.026605628430843353,0.004282874036799028,0.003830718994140625,0.003830718994140625,0.0004256889224052429,0.0005213618073463443,0.0005213621495361084,
2021-01-27,10:37:53:40,51.022675,7.561804,312.3,2.8,10,0.1,255,0.1,0.3,979.3,91.4,-0.9, -0.35434186458587646, 9.548076629638672, 0.37828385829925537, -0.051082808524370193, -0.004256900865584612, -0.02766985446214676,0.004282874036799028,0.003830718994140625,0.003830718994140625,0.0004256889224052429,0.0005213618073463443,0.0005213621495361084,
2021-01-27,10:37:53:60,51.022675,7.561804,312.3,2.8,10,0.1,255,0.1,0.3,979.3,91.4,-0.9, -0.363918662071228, 9.53849983215332, 0.3734954595565796, -0.051082808524370193, -0.004256900865584612, -0.02766985446214676,0.004282874036799028,0.003830718994140625,0.003830718994140625,0.0004256889224052429,0.0005213618073463443,0.0005213621495361084,
2021-01-27,10:37:53:80,51.022675,7.561804,312.3,2.8,10,0.1,255,0.1,0.3,979.3,91.4,-0.9, -0.35434186458587646, 9.548076629638672, 0.37828385829925537, -0.051082808524370193, -0.003192675532773137, -0.02766985446214676,0.004282874036799028,0.003830718994140625,0.003830718994140625,0.0004256889224052429,0.0005213618073463443,0.0005213621495361084,
2021-01-27,10:37:54:00,51.022674,7.561805,312.2,2.8,10,0.1,47,0.0,0.4,979.2,91.5,-0.8,-0.35913026332855225, 9.548076629638672, 0.38307225704193115, -0.051082808524370193, -0.004256900865584612, -0.02766985446214676,0.004883237077105045,0.004282874036799028,0.005746086438503777,0.0,0.0005213618073463443,0.0005213621495361084,
2021-01-27,10:37:54:20,51.022674,7.561805,312.2,2.8,10,0.1,47,0.0,0.4,979.2,91.5,-0.8, -0.35434186458587646, 9.548076629638672, 0.38307225704193115, -0.051082808524370193, -0.003192675532773137, -0.026605628430843353,0.004883237077105045,0.004282874036799028,0.005746086438503777,0.0,0.0005213618073463443,0.0005213621495361084,
2021-01-27,10:37:54:40,51.022674,7.561805,312.2,2.8,10,0.1,47,0.0,0.4,979.2,91.5,-0.8, -0.35913026332855225, 9.543288230895996, 0.3878606855869293, -0.051082808524370193, -0.004256900865584612, -0.02766985446214676,0.004883237077105045,0.004282874036799028,0.005746086438503777,0.0,0.0005213618073463443,0.0005213621495361084,
2021-01-27,10:37:54:60,51.022674,7.561805,312.2,2.8,10,0.1,47,0.0,0.4,979.2,91.5,-0.8, -0.3495534360408783, 9.53849983215332, 0.3734954595565796, -0.051082808524370193, -0.003192675532773137, -0.02766985446214676,0.004883237077105045,0.004282874036799028,0.005746086438503777,0.0,0.0005213618073463443,0.0005213621495361084,
2021-01-27,10:37:54:80,51.022674,7.561805,312.2,2.8,10,0.1,47,0.0,0.4,979.2,91.5,-0.8, -0.363918662071228, 9.53849983215332, 0.3734954595565796, -0.051082808524370193, -0.004256900865584612, -0.026605628430843353,0.004883237077105045,0.004282874036799028,0.005746086438503777,0.0,0.0005213618073463443,0.0005213621495361084,
2021-01-27,10:37:55:00,51.022672,7.561804,312.2,2.8,11,0.1,29,-0.1,0.3,979.3,91.3,-0.9,-0.35913026332855225, 9.543288230895996, 0.38307225704193115, -0.051082808524370193, -0.003192675532773137, -0.026605628430843353,0.0023458267209080386,0.005245428011385801,0.006495300072721857,0.0004256904125213623,0.0005213618073463443,0.0005213621495361084,
2021-01-27,10:37:55:20,51.022672,7.561804,312.2,2.8,11,0.1,29,-0.1,0.3,979.3,91.3,-0.9, -0.363918662071228, 9.552865028381348, 0.37828385829925537, -0.051082808524370193, -0.004256900865584612, -0.026605628430843353,0.0023458267209080386,0.005245428011385801,0.006495300072721857,0.0004256904125213623,0.0005213618073463443,0.0005213621495361084,
2021-01-27,10:37:55:40,51.022672,7.561804,312.2,2.8,11,0.1,29,-0.1,0.3,979.3,91.3,-0.9, -0.35913026332855225, 9.543288230895996, 0.37828385829925537, -0.051082808524370193, -0.003192675532773137, -0.02766985446214676,0.0023458267209080386,0.005245428011385801,0.006495300072721857,0.0004256904125213623,0.0005213618073463443,0.0005213621495361084,
2021-01-27,10:37:55:60,51.022672,7.561804,312.2,2.8,11,0.1,29,-0.1,0.3,979.3,91.3,-0.9, -0.363918662071228, 9.53849983215332, 0.3734954595565796, -0.05001858249306679, -0.004256900865584612, -0.02766985446214676,0.0023458267209080386,0.005245428011385801,0.006495300072721857,0.0004256904125213623,0.0005213618073463443,0.0005213621495361084,
2021-01-27,10:37:55:80,51.022672,7.561804,312.2,2.8,11,0.1,29,-0.1,0.3,979.3,91.3,-0.9, -0.35913026332855225, 9.53849983215332, 0.363918662071228, -0.051082808524370193, -0.003192675532773137, -0.02766985446214676,0.0023458267209080386,0.005245428011385801,0.006495300072721857,0.0004256904125213623,0.0005213618073463443,0.0005213621495361084,
2021-01-27,10:37:56:00,51.022672,7.561803,312.1,2.8,11,0.0,276,-0.1,0.3,979.4,91.5,-1.0,-0.3495534360408783, 9.533711433410645, 0.3974374830722809, -0.051082808524370193, -0.004256900865584612, -0.02766985446214676,0.005746086438503777,0.00558418454437604,0.00823828378479891,0.0004256904125213623,0.0005213618073463443,0.0,
2021-01-27,10:37:56:20,51.022672,7.561803,312.1,2.8,11,0.0,276,-0.1,0.3,979.4,91.5,-1.0, -0.363918662071228, 9.53849983215332, 0.37828385829925537, -0.051082808524370193, -0.004256900865584612, -0.02766985446214676,0.005746086438503777,0.00558418454437604,0.00823828378479891,0.0004256904125213623,0.0005213618073463443,0.0,
2021-01-27,10:37:56:40,51.022672,7.561803,312.1,2.8,11,0.0,276,-0.1,0.3,979.4,91.5,-1.0, -0.35434186458587646, 9.548076629638672, 0.3734954595565796, -0.051082808524370193, -0.003192675532773137, -0.02766985446214676,0.005746086438503777,0.00558418454437604,0.00823828378479891,0.0004256904125213623,0.0005213618073463443,0.0,
2021-01-27,10:37:56:60,51.022672,7.561803,312.1,2.8,11,0.0,276,-0.1,0.3,979.4,91.5,-1.0, -0.363918662071228, 9.548076629638672, 0.38307225704193115, -0.05001858249306679, -0.003192675532773137, -0.02766985446214676,0.005746086438503777,0.00558418454437604,0.00823828378479891,0.0004256904125213623,0.0005213618073463443,0.0,
2021-01-27,10:37:56:80,51.022672,7.561803,312.1,2.8,11,0.0,276,-0.1,0.3,979.4,91.5,-1.0, -0.35434186458587646, 9.543288230895996, 0.37828385829925537, -0.051082808524370193, -0.003192675532773137, -0.02766985446214676,0.005746086438503777,0.00558418454437604,0.00823828378479891,0.0004256904125213623,0.0005213618073463443,0.0,
2021-01-27,10:37:57:00,51.022672,7.561803,312.1,2.8,11,0.1,311,-0.1,0.2,979.2,91.6,-1.0,-0.363918662071228, 9.533711433410645, 0.37828385829925537, -0.051082808524370193, -0.004256900865584612, -0.02766985446214676,0.003830718994140625,0.005245428011385801,0.0074181669765439615,0.0,0.0,0.0004256904125213623,
2021-01-27,10:37:57:20,51.022672,7.561803,312.1,2.8,11,0.1,311,-0.1,0.2,979.2,91.6,-1.0, -0.35434186458587646, 9.548076629638672, 0.3926490843296051, -0.051082808524370193, -0.004256900865584612, -0.02766985446214676,0.003830718994140625,0.005245428011385801,0.0074181669765439615,0.0,0.0,0.0004256904125213623,
2021-01-27,10:37:57:40,51.022672,7.561803,312.1,2.8,11,0.1,311,-0.1,0.2,979.2,91.6,-1.0, -0.35434186458587646, 9.543288230895996, 0.3734954595565796, -0.051082808524370193, -0.004256900865584612, -0.02766985446214676,0.003830718994140625,0.005245428011385801,0.0074181669765439615,0.0,0.0,0.0004256904125213623,
2021-01-27,10:37:57:60,51.022672,7.561803,312.1,2.8,11,0.1,311,-0.1,0.2,979.2,91.6,-1.0, -0.35434186458587646, 9.543288230895996, 0.3734954595565796, -0.051082808524370193, -0.004256900865584612, -0.02766985446214676,0.003830718994140625,0.005245428011385801,0.0074181669765439615,0.0,0.0,0.0004256904125213623,
2021-01-27,10:37:57:80,51.022672,7.561803,312.1,2.8,11,0.1,311,-0.1,0.2,979.2,91.6,-1.0, -0.35434186458587646, 9.548076629638672, 0.3734954595565796, -0.051082808524370193, -0.004256900865584612, -0.026605628430843353,0.003830718994140625,0.005245428011385801,0.0074181669765439615,0.0,0.0,0.0004256904125213623,
2021-01-27,10:37:58:00,51.022673,7.561804,311.9,2.8,10,0.2,228,0.0,0.2,979.3,91.7,-1.0,-0.363918662071228, 9.53849983215332, 0.3878606855869293, -0.05001858249306679, -0.004256900865584612, -0.02766985446214676,0.0023458267209080386,0.003583309505270378,0.004883237077105045,0.0005213621495361084,0.0005213618073463443,0.0005213621495361084,
2021-01-27,10:37:58:20,51.022673,7.561804,311.9,2.8,10,0.2,228,0.0,0.2,979.3,91.7,-1.0, -0.363918662071228, 9.53849983215332, 0.3734954595565796, -0.05001858249306679, -0.004256900865584612, -0.026605628430843353,0.0023458267209080386,0.003583309505270378,0.004883237077105045,0.0005213621495361084,0.0005213618073463443,0.0005213621495361084,
2021-01-27,10:37:58:40,51.022673,7.561804,311.9,2.8,10,0.2,228,0.0,0.2,979.3,91.7,-1.0, -0.35913026332855225, 9.543288230895996, 0.37828385829925537, -0.051082808524370193, -0.003192675532773137, -0.02766985446214676,0.0023458267209080386,0.003583309505270378,0.004883237077105045,0.0005213621495361084,0.0005213618073463443,0.0005213621495361084,
2021-01-27,10:37:58:60,51.022673,7.561804,311.9,2.8,10,0.2,228,0.0,0.2,979.3,91.7,-1.0, -0.363918662071228, 9.543288230895996, 0.38307225704193115, -0.051082808524370193, -0.003192675532773137, -0.02766985446214676,0.0023458267209080386,0.003583309505270378,0.004883237077105045,0.0005213621495361084,0.0005213618073463443,0.0005213621495361084,
2021-01-27,10:37:58:80,51.022673,7.561804,311.9,2.8,10,0.2,228,0.0,0.2,979.3,91.7,-1.0, -0.35913026332855225, 9.548076629638672, 0.37828385829925537, -0.051082808524370193, -0.004256900865584612, -0.026605628430843353,0.0023458267209080386,0.003583309505270378,0.004883237077105045,0.0005213621495361084,0.0005213618073463443,0.0005213621495361084,
2021-01-27,10:37:59:00,51.022674,7.561805,312.0,2.8,11,0.1,328,-0.1,0.2,979.3,92.2,-0.9,-0.35434186458587646, 9.543288230895996, 0.38307225704193115, -0.051082808524370193, -0.003192675532773137, -0.02766985446214676,0.005584193744282208,0.003583309505270378,0.0023458267209080386,0.0,0.0005213618073463443,0.0004256904125213623,
2021-01-27,10:37:59:20,51.022674,7.561805,312.0,2.8,11,0.1,328,-0.1,0.2,979.3,92.2,-0.9, -0.3495534360408783, 9.53849983215332, 0.37828385829925537, -0.051082808524370193, -0.003192675532773137, -0.02766985446214676,0.005584193744282208,0.003583309505270378,0.0023458267209080386,0.0,0.0005213618073463443,0.0004256904125213623,
2021-01-27,10:37:59:40,51.022674,7.561805,312.0,2.8,11,0.1,328,-0.1,0.2,979.3,92.2,-0.9, -0.363918662071228, 9.543288230895996, 0.37828385829925537, -0.051082808524370193, -0.004256900865584612, -0.02766985446214676,0.005584193744282208,0.003583309505270378,0.0023458267209080386,0.0,0.0005213618073463443,0.0004256904125213623,
2021-01-27,10:37:59:60,51.022674,7.561805,312.0,2.8,11,0.1,328,-0.1,0.2,979.3,92.2,-0.9, -0.363918662071228, 9.548076629638672, 0.37828385829925537, -0.051082808524370193, -0.004256900865584612, -0.026605628430843353,0.005584193744282208,0.003583309505270378,0.0023458267209080386,0.0,0.0005213618073463443,0.0004256904125213623,
2021-01-27,10:37:59:80,51.022674,7.561805,312.0,2.8,11,0.1,328,-0.1,0.2,979.3,92.2,-0.9, -0.35913026332855225, 9.53849983215332, 0.38307225704193115, -0.051082808524370193, -0.004256900865584612, -0.02766985446214676,0.005584193744282208,0.003583309505270378,0.0023458267209080386,0.0,0.0005213618073463443,0.0004256904125213623,
2021-01-27,10:38:00:00,51.022673,7.561805,312.0,2.8,11,0.1,304,0.1,0.2,979.2,91.7,-1.0,-0.35913026332855225, 9.53849983215332, 0.38307225704193115, -0.051082808524370193, -0.004256900865584612, -0.02766985446214676,0.006352538674741669,0.004282874036799028,0.00985992343161402,0.0,0.0004256901331245899,0.0005213621495361084,
2021-01-27,10:38:00:20,51.022673,7.561805,312.0,2.8,11,0.1,304,0.1,0.2,979.2,91.7,-1.0, -0.363918662071228, 9.53849983215332, 0.3878606855869293, -0.051082808524370193, -0.003192675532773137, -0.02766985446214676,0.006352538674741669,0.004282874036799028,0.00985992343161402,0.0,0.0004256901331245899,0.0005213621495361084,
